timestamp_sec,ang_vel_x,ang_vel_y,ang_vel_z,lin_acc_x,lin_acc_y,lin_acc_z,quat_x,quat_y,quat_z,quat_w
129.881955,0.391638,0.008767,-0.036874,0.01086,0.307317,9.743295,0.036314,-0.024741,-0.649932,0.758721
129.894808,0.387307,0.011734,-0.045784,0.027801,0.316053,9.728093,0.037834,-0.025957,-0.650001,0.758547
129.901959,0.354082,0.020246,-0.03651,0.039111,0.304066,9.713705,0.039346,-0.027141,-0.650099,0.758344
129.915048,0.318738,0.037481,-0.021848,0.031893,0.293529,9.702707,0.040765,-0.028189,-0.650175,0.758167
129.921937,0.30008,0.052966,-0.016487,0.007172,0.261567,9.692292,0.042101,-0.029059,-0.650191,0.758047
129.934809,0.300822,0.066044,-0.01953,-0.025457,0.235259,9.683021,0.04341,-0.029804,-0.650185,0.757949
129.941957,0.295442,0.078566,-0.020947,-0.051249,0.212794,9.67491,0.04475,-0.03049,-0.650197,0.757833
129.954989,0.273407,0.097448,-0.016028,-0.064451,0.212884,9.687845,0.046106,-0.0311,-0.650198,0.757727
129.962161,0.252622,0.115498,-0.013963,-0.059025,0.22362,9.712515,0.04744,-0.031575,-0.650179,0.757641
129.974802,0.250198,0.128028,-0.021244,-0.062668,0.239042,9.734938,0.048759,-0.031924,-0.650155,0.757563
129.981972,0.249924,0.135875,-0.032532,-0.070507,0.239755,9.743643,0.050113,-0.032217,-0.65015,0.757467
129.994804,0.227733,0.138438,-0.033176,-0.070654,0.26198,9.760028,0.051494,-0.03248,-0.650179,0.757338
130.001962,0.184163,0.139395,-0.022654,-0.062645,0.294698,9.766107,0.052803,-0.032664,-0.650211,0.757212
130.015167,0.149383,0.144031,-0.013081,-0.05921,0.306146,9.769764,0.053958,-0.032711,-0.650204,0.757134
130.021969,0.140729,0.144185,-0.013095,-0.048806,0.307656,9.770742,0.054993,-0.032632,-0.650177,0.757087
130.034882,0.151415,0.140664,-0.015993,-0.041441,0.307111,9.759962,0.055987,-0.032514,-0.650148,0.757044
130.04197,0.150846,0.134737,-0.0147,-0.048584,0.304828,9.758215,0.056995,-0.032426,-0.650125,0.756993
130.0548,0.130162,0.13215,-0.009933,-0.060138,0.289379,9.749988,0.057974,-0.032349,-0.650103,0.75694
130.061948,0.106314,0.128009,-0.011825,-0.070643,0.277345,9.73555,0.058865,-0.032217,-0.650071,0.756904
130.074803,0.098759,0.117937,-0.01685,-0.073695,0.266283,9.727507,0.059661,-0.03203,-0.65005,0.756869
130.081957,0.094566,0.107377,-0.014795,-0.07901,0.268843,9.733602,0.060396,-0.03186,-0.65005,0.756817
130.094806,0.075947,0.103062,-0.000761,-0.085902,0.261722,9.72945,0.061082,-0.031722,-0.65004,0.756776
130.101926,0.056906,0.104943,0.011478,-0.08424,0.270345,9.725671,0.061696,-0.031559,-0.649984,0.756782
130.116091,0.051727,0.102829,0.006384,-0.078095,0.266234,9.725076,0.062251,-0.031344,-0.649891,0.756825
130.121963,0.059749,0.098029,-0.008161,-0.07542,0.250795,9.718737,0.062784,-0.031123,-0.649812,0.756858
130.134807,0.057185,0.091432,-0.012615,-0.07545,0.247626,9.720009,0.063326,-0.030936,-0.649784,0.756845
130.141963,0.032961,0.08763,-0.005186,-0.071393,0.259776,9.722475,0.06383,-0.030752,-0.649772,0.75682
130.154931,0.012303,0.084003,0.001584,-0.080026,0.26213,9.709556,0.064227,-0.030505,-0.649744,0.75682
130.161911,0.015287,0.076545,-0.001279,-0.08013,0.256518,9.697082,0.06453,-0.030203,-0.649699,0.756845
130.174956,0.025849,0.063711,-0.004867,-0.086304,0.236525,9.69577,0.064809,-0.029928,-0.649666,0.756861
130.181962,0.012314,0.05166,0.003919,-0.092785,0.227325,9.699567,0.065075,-0.029722,-0.64964,0.756868
130.194815,-0.012902,0.04909,0.015492,-0.092104,0.245754,9.693673,0.065257,-0.029521,-0.649593,0.756901
130.201907,-0.021012,0.049154,0.017514,-0.090227,0.267605,9.689889,0.065342,-0.029264,-0.649508,0.756976
130.215029,-0.009439,0.04885,0.011826,-0.088173,0.279573,9.6837,0.065399,-0.028986,-0.649412,0.757065
130.221987,-0.001486,0.048002,0.009102,-0.081445,0.293853,9.686525,0.0655,-0.028747,-0.649336,0.75713
130.234896,-0.020325,0.048656,0.01034,-0.078678,0.289699,9.689074,0.065629,-0.028537,-0.649268,0.757185
130.24195,-0.043073,0.051708,0.009631,-0.073068,0.289309,9.69467,0.065701,-0.028274,-0.649199,0.757248
130.254805,-0.047863,0.054779,0.008983,-0.064072,0.311939,9.710612,0.065708,-0.027935,-0.649118,0.757329
130.261946,-0.0509,0.058481,0.015121,-0.051242,0.332641,9.742236,0.065705,-0.027566,-0.649054,0.757398
130.274883,-0.06816,0.065728,0.023728,-0.038496,0.347529,9.773284,0.065696,-0.027168,-0.648968,0.757487
130.282467,-0.083335,0.075869,0.022913,-0.038695,0.35307,9.810377,0.065644,-0.026688,-0.648845,0.757614
130.29481,-0.087219,0.082447,0.009805,-0.045455,0.35181,9.853167,0.065512,-0.026092,-0.648736,0.757739
130.301946,-0.08805,0.086076,-0.003428,-0.070946,0.355899,9.887526,0.06538,-0.025444,-0.648672,0.757827
130.314994,-0.104548,0.084264,-0.006726,-0.095515,0.356378,9.9203,0.065247,-0.024768,-0.648642,0.757887
130.321946,-0.146595,0.082314,0.002162,-0.106674,0.368395,9.948413,0.065042,-0.02404,-0.648639,0.757931
130.33482,-0.202334,0.077748,0.012551,-0.103099,0.390414,9.975474,0.064671,-0.02319,-0.648609,0.758014
130.341964,-0.249102,0.071725,0.014688,-0.096568,0.388698,10.007488,0.064079,-0.022184,-0.64855,0.758146
130.35481,-0.280935,0.058987,0.008586,-0.088308,0.393903,10.028283,0.063292,-0.021056,-0.648473,0.758309
130.362008,-0.305949,0.04258,0.001688,-0.078189,0.394372,10.037297,0.062345,-0.019872,-0.648438,0.75845
130.374721,-0.347286,0.027578,0.001539,-0.062184,0.395252,10.04113,0.061247,-0.018665,-0.648433,0.758575
130.382289,-0.39605,0.019358,0.007503,-0.05179,0.381067,10.034461,0.059951,-0.017383,-0.648418,0.758721
130.3948,-0.431416,0.014933,0.009646,-0.040428,0.365445,10.00883,0.05845,-0.015985,-0.648404,0.758881
130.401962,-0.446875,0.010471,0.002241,-0.024189,0.35213,9.978826,0.056798,-0.014488,-0.648386,0.759052
130.415024,-0.457175,0.005626,-0.003207,-0.014384,0.352571,9.959786,0.055066,-0.012949,-0.648391,0.759203
130.421967,-0.483608,0.001564,-0.004409,-0.010856,0.36124,9.938122,0.053269,-0.01138,-0.648392,0.759356
130.43491,-0.519511,0.001393,-0.006999,-0.001693,0.367239,9.909641,0.051355,-0.009737,-0.648422,0.759484
130.441971,-0.535101,-0.001341,-0.015186,-0.004774,0.36792,9.879462,0.049306,-0.00798,-0.648462,0.759607
130.454813,-0.526302,-0.00803,-0.023035,-0.028462,0.352377,9.852607,0.047188,-0.006179,-0.648504,0.759722
130.461928,-0.519626,-0.012989,-0.01854,-0.039922,0.33239,9.847525,0.045078,-0.004425,-0.648592,0.759787
130.474808,-0.515022,-0.009368,-0.010063,-0.040536,0.321514,9.84079,0.042982,-0.002714,-0.648661,0.759858
130.48191,-0.484608,-0.006221,-0.011606,-0.038802,0.328982,9.825625,0.040906,-0.001017,-0.648696,0.759946
130.494711,-0.435831,-0.008672,-0.021692,-0.043762,0.326288,9.81303,0.038937,0.000594,-0.648732,0.76002
130.501962,-0.406816,-0.013091,-0.028455,-0.049725,0.334848,9.804636,0.037141,0.002045,-0.648799,0.76005
130.516102,-0.398453,-0.015642,-0.03242,-0.056079,0.328791,9.795002,0.035443,0.003384,-0.64889,0.760049
130.521919,-0.381137,-0.020194,-0.037587,-0.047543,0.326058,9.794098,0.033774,0.004679,-0.648971,0.760049
130.535482,-0.357011,-0.026853,-0.038863,-0.033212,0.32462,9.79155,0.032156,0.005901,-0.649093,0.760006
130.541961,-0.351069,-0.030348,-0.027492,-0.023118,0.324681,9.800192,0.030599,0.00703,-0.649218,0.759954
130.554707,-0.355153,-0.031066,-0.01754,-0.016462,0.312061,9.808319,0.029053,0.008128,-0.649281,0.75995
130.561879,-0.336214,-0.04043,-0.020766,-0.019735,0.300361,9.824505,0.027492,0.009229,-0.649328,0.759956
130.5748,-0.30051,-0.057757,-0.03185,-0.033399,0.292183,9.839493,0.025964,0.010242,-0.649386,0.759947
130.581915,-0.282146,-0.075304,-0.034968,-0.044159,0.308368,9.85432,0.024503,0.011089,-0.649484,0.7599
130.594799,-0.278998,-0.090568,-0.035124,-0.036599,0.310972,9.855329,0.023054,0.011812,-0.649595,0.759839
130.601959,-0.257876,-0.106201,-0.037834,-0.028946,0.297532,9.856957,0.021578,0.012457,-0.649711,0.759773
130.615109,-0.217245,-0.124578,-0.039825,-0.036414,0.281692,9.857505,0.020134,0.012971,-0.649838,0.759696
130.621953,-0.187049,-0.137227,-0.030863,-0.042484,0.273929,9.85702,0.018781,0.01329,-0.649957,0.759623
130.634886,-0.162316,-0.140811,-0.019763,-0.043935,0.304043,9.859309,0.017511,0.013457,-0.650061,0.759561
130.641952,-0.120577,-0.146781,-0.022518,-0.047523,0.327286,9.843849,0.016331,0.013514,-0.650128,0.759529
130.654717,-0.076154,-0.155719,-0.032447,-0.047349,0.362748,9.826182,0.015289,0.013412,-0.650201,0.75949
130.661964,-0.059331,-0.165272,-0.033311,-0.054591,0.374609,9.801751,0.014379,0.013138,-0.650314,0.759415
130.674809,-0.061804,-0.173425,-0.028867,-0.054103,0.399217,9.774888,0.013505,0.01277,-0.650433,0.759336
130.681946,-0.046696,-0.185705,-0.027559,-0.066309,0.396496,9.73824,0.012604,0.012355,-0.650537,0.75927
130.694807,-0.026014,-0.204434,-0.024982,-0.075762,0.388202,9.721355,0.011714,0.011833,-0.650638,0.759205
130.701924,-0.020021,-0.220265,-0.015565,-0.073759,0.378483,9.703832,0.01084,0.011179,-0.650726,0.759153
130.715021,-0.010981,-0.228508,-0.011244,-0.078396,0.376087,9.695892,0.009944,0.010444,-0.650781,0.759129
130.721916,0.018658,-0.233698,-0.017818,-0.093516,0.378019,9.694491,0.009056,0.009647,-0.650837,0.759102
130.73471,0.044689,-0.23718,-0.024549,-0.100773,0.371895,9.688563,0.00825,0.008746,-0.6509,0.759068
130.748105,0.040725,-0.233362,-0.020099,-0.106263,0.37227,9.694006,0.00752,0.007761,-0.650986,0.759013
130.754807,0.022642,-0.21862,-0.013336,-0.102594,0.381374,9.714226,0.00679,0.006805,-0.651071,0.758956
130.761881,0.018557,-0.19908,-0.015015,-0.105624,0.384749,9.734591,0.006042,0.005961,-0.651118,0.758929
130.7747,0.031165,-0.177825,-0.022633,-0.106765,0.3805,9.746502,0.005339,0.005205,-0.651168,0.758897
130.781953,0.034055,-0.15851,-0.02414,-0.091256,0.383174,9.764731,0.004746,0.004491,-0.651243,0.758841
130.794807,0.018091,-0.138306,-0.013913,-0.069372,0.385579,9.79775,0.004227,0.00384,-0.651337,0.758767
130.801914,-0.000131,-0.120956,-0.006537,-0.048435,0.380186,9.836681,0.003719,0.003309,-0.651378,0.758737
130.815093,0.0054,-0.107266,-0.009515,-0.032809,0.388153,9.873119,0.003212,0.00289,-0.65139,0.758731
130.821959,0.025821,-0.102366,-0.015264,-0.018247,0.404374,9.897005,0.00277,0.002501,-0.651417,0.75871
130.834891,0.028791,-0.1001,-0.012179,-0.002713,0.402933,9.921856,0.002414,0.002073,-0.651456,0.75868
130.841922,0.017762,-0.095869,-0.006513,0.01426,0.403921,9.936765,0.002079,0.001644,-0.651485,0.758657
130.854805,0.023071,-0.092484,-0.003949,0.012522,0.396533,9.941641,0.001721,0.001261,-0.651493,0.758651
130.862022,0.052737,-0.094443,-0.004761,0.00729,0.406977,9.954915,0.001394,0.000872,-0.651502,0.758645
130.874705,0.077182,-0.094911,0.00213,-0.001808,0.408628,9.95238,0.001168,0.000391,-0.651502,0.758646
130.881946,0.080495,-0.088384,0.015126,-0.017973,0.403706,9.954495,0.001056,-0.000192,-0.651476,0.758668
130.894805,0.079133,-0.083166,0.018662,-0.015147,0.405543,9.960179,0.001007,-0.000794,-0.651422,0.758714
130.901916,0.089702,-0.080256,0.00785,-0.011292,0.41458,9.966191,0.000971,-0.001374,-0.651339,0.758785
130.914982,0.101179,-0.076563,-0.004259,-0.005423,0.420115,9.964658,0.000981,-0.001972,-0.651294,0.758822
130.92196,0.084161,-0.072004,-0.001739,-0.010379,0.408519,9.959718,0.001034,-0.002585,-0.651313,0.758804
130.93472,0.065485,-0.06493,0.010185,-0.013389,0.411096,9.960471,0.001043,-0.003128,-0.651301,0.758812
130.941874,0.072931,-0.059906,0.012266,-0.013646,0.416442,9.978223,0.001009,-0.003592,-0.651249,0.758855
130.954889,0.082747,-0.061671,0.01051,-0.018431,0.419483,9.978391,0.001014,-0.00406,-0.651187,0.758906
130.961943,0.071743,-0.060312,0.011223,-0.025867,0.408686,9.973482,0.001047,-0.004558,-0.651152,0.758933
130.97469,0.051961,-0.056559,0.009105,-0.028609,0.378672,9.984144,0.001047,-0.005021,-0.651092,0.758981
130.981887,0.047314,-0.05301,0.001224,-0.027692,0.343866,9.992128,0.000994,-0.005415,-0.651041,0.759022
130.994815,0.068911,-0.051802,-0.005862,-0.027506,0.321249,9.986537,0.000944,-0.005791,-0.651038,0.759022
131.001908,0.083672,-0.04524,0.000184,-0.036823,0.302213,9.985983,0.000979,-0.006228,-0.651037,0.75902
131.014998,0.081438,-0.029707,0.012632,-0.047573,0.284709,9.978223,0.001094,-0.006691,-0.651015,0.759035
131.021953,0.07554,-0.013728,0.017347,-0.046302,0.273033,9.966965,0.001255,-0.007093,-0.650949,0.759087
131.034887,0.078223,-0.005497,0.005884,-0.037543,0.271337,9.950981,0.001444,-0.007418,-0.65088,0.759143
131.041882,0.086155,-0.000409,-0.01072,-0.031381,0.277086,9.930049,0.00167,-0.007715,-0.65084,0.759174
131.054894,0.076206,0.0053,-0.011422,-0.017601,0.286554,9.907217,0.001932,-0.008005,-0.650857,0.759155
131.061972,0.049435,0.020515,0.003395,-0.0092,0.301139,9.874771,0.002169,-0.008233,-0.650897,0.759119
131.074698,0.029589,0.046565,0.015558,0.004121,0.32851,9.834443,0.002357,-0.008315,-0.650868,0.759142
131.083744,0.035373,0.068543,0.012141,0.01175,0.35545,9.797678,0.002589,-0.008253,-0.650796,0.759203
131.094816,0.045674,0.087923,-0.001306,0.012777,0.372368,9.758837,0.002943,-0.008133,-0.650736,0.759255
131.101965,0.03816,0.101357,-0.004736,0.015712,0.388263,9.707035,0.003397,-0.007975,-0.650718,0.75927
131.114983,0.022958,0.112318,0.000452,0.010348,0.390084,9.644686,0.003877,-0.00775,-0.650713,0.759274
131.121964,0.036687,0.120052,0.002705,-0.001014,0.38732,9.582337,0.004354,-0.007453,-0.650691,0.759294
131.1348,0.053889,0.118817,-0.000933,0.010649,0.389563,9.513076,0.004907,-0.007172,-0.650673,0.759308
131.141882,0.046538,0.114139,-0.005165,-0.005905,0.377744,9.448212,0.005518,-0.006943,-0.650654,0.759323
131.154694,0.045343,0.105265,-0.00797,-0.024837,0.355987,9.399411,0.006088,-0.00671,-0.650651,0.759323
131.161922,0.059655,0.093572,-0.00349,-0.036219,0.33444,9.343374,0.006612,-0.006495,-0.650678,0.759298
131.174653,0.055293,0.091182,0.009188,-0.041749,0.316581,9.301727,0.007131,-0.006344,-0.650667,0.759303
131.181892,0.034313,0.095253,0.011503,-0.041259,0.308769,9.278071,0.007613,-0.00618,-0.650614,0.759345
131.194635,0.018872,0.098774,0.002085,-0.02959,0.311013,9.26776,0.008033,-0.005939,-0.650553,0.759395
131.201889,0.005666,0.106679,0.003928,-0.014234,0.30801,9.26385,0.008415,-0.005642,-0.650534,0.75941
131.214981,-0.008325,0.121137,0.016239,-0.008758,0.296086,9.257239,0.008786,-0.005284,-0.650494,0.759442
131.221965,-0.006542,0.132317,0.016074,-0.00437,0.281662,9.260691,0.009165,-0.004844,-0.650413,0.75951
131.234803,0.007338,0.136095,0.004388,-0.008297,0.269415,9.261086,0.009593,-0.004375,-0.650351,0.759561
131.241887,0.004844,0.131836,0.002464,-0.009143,0.248322,9.261619,0.010077,-0.00393,-0.650308,0.759594
131.254652,-0.007691,0.125196,0.011638,-0.020294,0.242224,9.268731,0.010533,-0.003485,-0.650273,0.75962
131.261876,-0.001056,0.120458,0.018801,-0.033396,0.265663,9.289052,0.010917,-0.003018,-0.650224,0.759658
131.27481,0.012412,0.113275,0.018425,-0.046633,0.298119,9.326475,0.011297,-0.002581,-0.650133,0.759732
131.282423,0.000622,0.107246,0.016232,-0.064192,0.319422,9.381017,0.011692,-0.0022,-0.650042,0.759805
131.294805,-0.026522,0.107344,0.012457,-0.064023,0.311607,9.432218,0.012058,-0.001795,-0.649959,0.759872
131.301921,-0.035975,0.111908,0.008472,-0.051461,0.316445,9.47123,0.012338,-0.001316,-0.649901,0.759918
131.315064,-0.023954,0.118162,0.008977,-0.04277,0.32836,9.492371,0.01261,-0.000805,-0.649843,0.759963
131.321884,-0.017919,0.127756,0.018062,-0.040196,0.340683,9.505373,0.012951,-0.000314,-0.64978,0.760012
131.334688,-0.018103,0.142422,0.021729,-0.042576,0.338362,9.514657,0.013355,0.000188,-0.649689,0.760083
131.34194,-0.005503,0.155051,0.008759,-0.031405,0.331407,9.527796,0.013808,0.000742,-0.649584,0.760164
131.354685,0.011003,0.161523,-0.003723,-0.017352,0.324596,9.545168,0.01434,0.001313,-0.649522,0.760207
131.361887,0.012014,0.164423,-0.002287,0.01077,0.330823,9.565844,0.014939,0.001872,-0.649504,0.760209
131.374717,0.010118,0.169945,0.005776,0.03402,0.339524,9.577503,0.015548,0.002449,-0.649496,0.760202
131.381947,0.024598,0.171469,0.005639,0.043596,0.336765,9.578909,0.016165,0.003052,-0.649447,0.760229
131.394809,0.033504,0.165522,0.001158,0.036833,0.341069,9.57213,0.016832,0.003619,-0.649397,0.760255
131.401878,0.02107,0.157155,-0.002085,0.033745,0.350179,9.573565,0.017512,0.004138,-0.649371,0.760259
131.415083,0.00989,0.148484,-0.004704,0.028188,0.352134,9.574837,0.018128,0.004655,-0.649348,0.760261
131.421956,0.01297,0.136756,-0.005353,0.022452,0.346917,9.576566,0.018684,0.005163,-0.649332,0.760258
131.43481,0.009311,0.126501,0.003131,0.0174,0.345501,9.576582,0.019217,0.005613,-0.649318,0.760253
131.441971,0.000762,0.123496,0.017161,0.022039,0.351889,9.564831,0.019711,0.006034,-0.649272,0.760277
131.454706,0.010076,0.118887,0.015929,0.024269,0.354166,9.547586,0.020164,0.006465,-0.64918,0.76034
131.461945,0.029377,0.112391,0.002153,0.018646,0.340904,9.520898,0.020629,0.006858,-0.649094,0.760397
131.474705,0.029464,0.106622,-0.003035,0.008215,0.319712,9.501299,0.021131,0.00718,-0.64905,0.760418
131.481996,0.022635,0.099048,-0.001811,-0.009232,0.291126,9.488648,0.021606,0.007489,-0.649035,0.760415
131.494686,0.037501,0.087865,-0.001607,-0.002884,0.288439,9.472914,0.022033,0.007796,-0.649018,0.760414
131.501882,0.051471,0.070387,0.002709,-0.001969,0.289478,9.452816,0.022474,0.008015,-0.648999,0.760415
131.514991,0.036959,0.059074,0.007079,-0.022648,0.295186,9.441775,0.022909,0.008128,-0.648967,0.760428
131.521884,0.021234,0.050922,0.003993,-0.048364,0.291899,9.438216,0.023269,0.008228,-0.64892,0.760456
131.534699,0.021524,0.041287,-0.001378,-0.05653,0.282164,9.425729,0.023555,0.008331,-0.648888,0.760473
131.541887,0.014314,0.036296,0.001478,-0.053487,0.269242,9.408923,0.023813,0.008396,-0.648868,0.760482
131.554807,0.00299,0.04193,0.007749,-0.043591,0.260285,9.402207,0.024037,0.008462,-0.648839,0.760499
131.561963,0.010931,0.048441,0.005131,-0.034641,0.260422,9.390948,0.024237,0.00858,-0.648788,0.760535
131.574729,0.026797,0.052784,0.000939,-0.019731,0.263549,9.381998,0.024476,0.00871,-0.648757,0.760552
131.581909,0.024351,0.057279,0.003055,-0.002949,0.255613,9.379818,0.024773,0.008825,-0.648729,0.760565
131.59471,0.026538,0.061933,0.005761,0.017862,0.261152,9.389394,0.025074,0.008968,-0.648694,0.760583
131.601883,0.040127,0.060499,0.002628,0.043372,0.276129,9.417526,0.025391,0.009125,-0.648661,0.760599
131.614977,0.025861,0.057158,0.008504,0.062064,0.287263,9.449411,0.025743,0.009245,-0.648626,0.760616
131.621965,0.002738,0.054745,0.018923,0.067548,0.286693,9.477565,0.026041,0.00939,-0.648569,0.760653
131.634882,0.007915,0.04856,0.024089,0.070162,0.313039,9.515836,0.026255,0.009582,-0.648473,0.760724
131.641888,0.024241,0.034644,0.025337,0.070997,0.333414,9.551792,0.026471,0.009725,-0.648362,0.76081
131.654712,0.02552,0.013821,0.026896,0.063072,0.336098,9.585104,0.026704,0.009762,-0.648243,0.760902
131.661882,0.013917,-0.010236,0.024589,0.053174,0.353615,9.621412,0.026881,0.009713,-0.648123,0.761
131.674686,0.011384,-0.03818,0.017737,0.051012,0.35488,9.669018,0.02694,0.009604,-0.648018,0.761088
131.681881,0.018406,-0.06461,0.018077,0.040372,0.345348,9.713103,0.026886,0.009402,-0.647937,0.761161
131.694811,0.003188,-0.08649,0.029098,0.033061,0.338194,9.737654,0.026745,0.009089,-0.647859,0.761237
131.701949,-0.023686,-0.097613,0.044713,0.030401,0.320913,9.750121,0.026473,0.008749,-0.647737,0.761354
131.714976,-0.034327,-0.106097,0.049525,0.023762,0.315404,9.75445,0.026062,0.00845,-0.647566,0.761517
131.72189,-0.026645,-0.117439,0.044791,0.02662,0.30095,9.751944,0.025583,0.008149,-0.647377,0.761697
131.734835,-0.032139,-0.127292,0.043866,0.020572,0.277982,9.75353,0.025093,0.007784,-0.647203,0.761865
131.741933,-0.048504,-0.129711,0.047549,0.007937,0.269526,9.748114,0.02456,0.007394,-0.647025,0.762037
131.754681,-0.046917,-0.132421,0.047602,-0.009113,0.280129,9.749192,0.023971,0.007029,-0.646841,0.762215
131.761923,-0.026186,-0.142185,0.047386,-0.02506,0.293125,9.753784,0.023387,0.006637,-0.646656,0.762394
131.774665,-0.018059,-0.156473,0.051319,-0.042641,0.308139,9.75669,0.022851,0.006142,-0.646467,0.762575
131.781875,-0.036198,-0.166742,0.052798,-0.042086,0.327009,9.753617,0.022302,0.005567,-0.646271,0.762762
131.794748,-0.043378,-0.17704,0.049487,-0.035854,0.35276,9.748896,0.021661,0.005001,-0.64607,0.762954
131.801909,-0.027882,-0.192512,0.046438,-0.020932,0.382975,9.753498,0.020955,0.004421,-0.645883,0.763136
131.815008,-0.015533,-0.202632,0.052456,0.00468,0.401875,9.765043,0.020244,0.003751,-0.645706,0.763308
131.821958,-0.015304,-0.200131,0.060787,0.016321,0.405805,9.784645,0.019538,0.003017,-0.64551,0.763496
131.834949,-0.008615,-0.196411,0.052894,-0.006532,0.408971,9.795259,0.018836,0.002288,-0.645286,0.763705
131.841885,0.006109,-0.189668,0.036776,-0.028463,0.403666,9.778393,0.018172,0.001556,-0.645096,0.763884
131.854668,0.000678,-0.181823,0.033031,-0.024894,0.379495,9.758119,0.017578,0.000806,-0.644952,0.76402
131.861914,-0.016778,-0.169879,0.041644,-0.022155,0.35327,9.739408,0.016998,9.6e-05,-0.644821,0.764144
131.874694,-0.026831,-0.161116,0.042,-0.032636,0.323802,9.723407,0.0164,-0.000527,-0.644668,0.764286
131.882348,-0.021687,-0.160164,0.032944,-0.055805,0.314805,9.725672,0.015787,-0.001104,-0.644505,0.764436
131.894871,-0.025748,-0.160315,0.032547,-0.072689,0.322116,9.726221,0.015179,-0.001696,-0.644372,0.76456
131.901963,-0.042471,-0.151272,0.040611,-0.083943,0.337566,9.726484,0.014555,-0.002269,-0.64424,0.764681
131.917061,-0.047225,-0.136746,0.043255,-0.082046,0.35037,9.741115,0.013898,-0.002753,-0.644089,0.76482
131.921894,-0.040796,-0.124567,0.026832,-0.080679,0.373561,9.771246,0.013259,-0.003158,-0.643923,0.764969
131.934699,-0.037884,-0.111702,0.005591,-0.072727,0.401541,9.801105,0.012674,-0.003526,-0.643814,0.765069
131.941885,-0.058901,-0.097057,-0.006967,-0.070038,0.420417,9.831992,0.012136,-0.003847,-0.643784,0.765101
131.954666,-0.080272,-0.079482,-0.012091,-0.08752,0.428412,9.849684,0.011578,-0.004055,-0.643799,0.765097
131.961909,-0.077113,-0.061356,-0.019637,-0.116818,0.42447,9.851523,0.011009,-0.004143,-0.643834,0.765074
131.976103,-0.055213,-0.047526,-0.032954,-0.142126,0.41412,9.836829,0.010517,-0.004181,-0.643898,0.765027
131.981887,-0.04777,-0.030032,-0.039498,-0.156791,0.406524,9.807576,0.010153,-0.004234,-0.644007,0.764941
131.99468,-0.050823,-0.00586,-0.043006,-0.155094,0.403035,9.766215,0.009877,-0.004245,-0.644142,0.76483
132.001953,-0.036637,0.014944,-0.052661,-0.153715,0.395008,9.721776,0.009669,-0.004158,-0.644292,0.764707
132.015027,-0.009398,0.030032,-0.068064,-0.154656,0.397802,9.683073,0.009571,-0.004026,-0.644483,0.764548
132.021957,-0.007366,0.042451,-0.077562,-0.146107,0.409028,9.630571,0.009603,-0.003899,-0.644724,0.764345
132.034803,-0.025283,0.056411,-0.084588,-0.139215,0.404641,9.582463,0.009674,-0.003721,-0.645002,0.76411
132.041909,-0.02687,0.067039,-0.094927,-0.130183,0.374665,9.546048,0.009724,-0.003436,-0.645319,0.763844
132.054653,-0.01655,0.071784,-0.099595,-0.122434,0.335325,9.53042,0.009805,-0.003109,-0.645661,0.763555
132.061888,-0.021984,0.080821,-0.094968,-0.119648,0.339324,9.519474,0.009946,-0.002797,-0.646018,0.763252
132.074969,-0.031546,0.089368,-0.094833,-0.121571,0.326488,9.494271,0.010108,-0.00245,-0.646359,0.762962
132.081921,-0.027498,0.09107,-0.108467,-0.116186,0.303793,9.480778,0.010272,-0.002057,-0.646712,0.762662
132.094805,-0.025947,0.08551,-0.120178,-0.10885,0.310947,9.482917,0.010453,-0.001673,-0.647101,0.762331
132.10189,-0.043984,0.078494,-0.119202,-0.094435,0.336624,9.492734,0.010616,-0.001306,-0.647533,0.761962
132.114981,-0.06089,0.074929,-0.115317,-0.083111,0.353333,9.513555,0.010688,-0.000906,-0.647975,0.761586
132.122175,-0.052839,0.072114,-0.120157,-0.075573,0.351402,9.536485,0.01068,-0.000461,-0.648396,0.761228
132.13468,-0.031122,0.0676,-0.13026,-0.087526,0.334024,9.570521,0.010682,-4.3e-05,-0.648836,0.760854
132.141882,-0.020522,0.064853,-0.132163,-0.077834,0.341049,9.599096,0.01074,0.000301,-0.64931,0.760448
132.154682,-0.021282,0.067341,-0.128117,-0.062656,0.340039,9.614966,0.010827,0.000606,-0.6498,0.760028
132.16188,-0.012848,0.070327,-0.130217,-0.049146,0.338733,9.623039,0.010925,0.000915,-0.65027,0.759624
132.174803,0.003568,0.075769,-0.138384,-0.047305,0.308801,9.616623,0.011071,0.001205,-0.650747,0.759213
132.181877,0.001989,0.083318,-0.144182,-0.047871,0.320637,9.626143,0.011294,0.001462,-0.65125,0.758778
132.194666,-0.020078,0.097214,-0.139854,-0.051949,0.342565,9.635687,0.011542,0.00175,-0.651773,0.758324
132.201877,-0.041276,0.109774,-0.134617,-0.073268,0.33863,9.645387,0.011759,0.00215,-0.652281,0.757883
132.215021,-0.041207,0.117169,-0.131956,-0.080984,0.364186,9.673278,0.011941,0.00266,-0.652779,0.75745
132.221991,-0.018187,0.116374,-0.135473,-0.095284,0.365965,9.693707,0.012147,0.003196,-0.653256,0.757033
132.234818,0.000932,0.105617,-0.136945,-0.108261,0.35692,9.719595,0.012428,0.003659,-0.653744,0.756605
132.24195,0.003667,0.093253,-0.132245,-0.123631,0.336698,9.752939,0.012745,0.004025,-0.654238,0.756171
132.254808,0.008413,0.079921,-0.124735,-0.123941,0.337304,9.783512,0.013038,0.00433,-0.654726,0.755741
132.261886,0.030521,0.064978,-0.124728,-0.106232,0.32272,9.797428,0.013313,0.004563,-0.655178,0.755344
132.274645,0.061099,0.050634,-0.133384,-0.089137,0.303058,9.817946,0.013624,0.004667,-0.655631,0.754944
132.283818,0.082118,0.035525,-0.13516,-0.086471,0.281666,9.821124,0.014017,0.004629,-0.656116,0.754516
132.294686,0.083618,0.02233,-0.12574,-0.069571,0.281841,9.805746,0.014454,0.004479,-0.656604,0.754083
132.301899,0.078661,0.014477,-0.117283,-0.067989,0.281234,9.771136,0.01486,0.00427,-0.657061,0.753679
132.314969,0.094803,0.011817,-0.118938,-0.078112,0.285667,9.725895,0.015227,0.00404,-0.657494,0.753295
132.321887,0.117901,0.007029,-0.117232,-0.074975,0.308517,9.679746,0.015635,0.003755,-0.657924,0.752913
132.334635,0.124988,0.003059,-0.103658,-0.077568,0.32073,9.631246,0.016104,0.003387,-0.658345,0.752536
132.341904,0.123961,0.003272,-0.092553,-0.089351,0.324291,9.574394,0.016586,0.002986,-0.65872,0.752199
132.354807,0.13528,-0.000303,-0.091087,-0.092239,0.338776,9.519395,0.017063,0.002585,-0.659063,0.75189
132.361884,0.17366,-0.002883,-0.091442,-0.094717,0.329181,9.474607,0.017575,0.002135,-0.659391,0.751592
132.374646,0.220257,-0.001185,-0.093158,-0.097411,0.326393,9.445314,0.018217,0.001556,-0.659722,0.751288
132.381886,0.255398,0.002528,-0.087824,-0.104842,0.315552,9.419549,0.019035,0.000831,-0.660064,0.750967
132.397389,0.270127,0.010263,-0.071808,-0.101406,0.306927,9.402163,0.019994,5e-06,-0.660377,0.750668
132.40189,0.285418,0.02507,-0.058962,-0.094649,0.294047,9.386437,0.021044,-0.000849,-0.660631,0.750416
132.414967,0.314629,0.044505,-0.059582,-0.086366,0.278979,9.380399,0.022206,-0.001706,-0.660836,0.7502
132.421958,0.370779,0.065715,-0.065786,-0.055399,0.292259,9.39173,0.023551,-0.002596,-0.661049,0.749968
132.4348,0.438712,0.087568,-0.065248,-0.053082,0.292344,9.398075,0.025175,-0.003591,-0.661265,0.749722
132.441935,0.494015,0.10557,-0.056306,-0.047758,0.301031,9.409906,0.027116,-0.004724,-0.661471,0.749466
132.454628,0.532961,0.118827,-0.039769,-0.039195,0.289456,9.408369,0.02932,-0.005972,-0.66165,0.749216
132.46189,0.562789,0.129608,-0.021758,-0.046606,0.286968,9.416345,0.031713,-0.007302,-0.661746,0.749022
132.474638,0.594598,0.136933,-0.015903,-0.029663,0.319466,9.427743,0.034257,-0.008697,-0.661769,0.748874
132.481889,0.635883,0.139347,-0.019634,-0.033918,0.305004,9.413688,0.036954,-0.010172,-0.661761,0.748734
132.4947,0.67638,0.142412,-0.023029,-0.040022,0.304399,9.417473,0.039821,-0.01177,-0.661755,0.748569
132.501887,0.695988,0.145749,-0.017664,-0.050905,0.300417,9.428369,0.042844,-0.013487,-0.661748,0.748379
132.515058,0.682952,0.144389,-0.00786,-0.060644,0.307921,9.437679,0.045945,-0.015256,-0.661712,0.748193
132.521885,0.641928,0.140504,0.002365,-0.065658,0.306434,9.450265,0.048992,-0.016989,-0.661669,0.748001
132.534721,0.587797,0.13578,0.01043,-0.075154,0.305737,9.461266,0.051872,-0.018601,-0.661548,0.747875
132.541886,0.536944,0.12973,0.016016,-0.055701,0.313838,9.466054,0.054533,-0.020053,-0.661398,0.747781
132.554641,0.497983,0.12163,0.017019,-0.057486,0.322596,9.478916,0.056983,-0.021362,-0.661251,0.747692
132.561888,0.468232,0.110773,0.015307,-0.041908,0.337559,9.505682,0.059257,-0.022569,-0.661081,0.747631
132.574669,0.447787,0.103389,0.013672,-0.032621,0.354835,9.52538,0.06139,-0.023719,-0.660918,0.747567
132.581877,0.423209,0.095592,0.017843,-0.039054,0.33522,9.552978,0.063424,-0.024832,-0.660761,0.747499
132.594644,0.39105,0.086652,0.029753,-0.03213,0.349003,9.601486,0.065344,-0.0259,-0.660615,0.747427
132.602025,0.353741,0.077464,0.045458,-0.041668,0.333136,9.635867,0.067118,-0.026901,-0.660404,0.747421
132.615009,0.316274,0.070587,0.054116,-0.028683,0.344319,9.674299,0.068722,-0.02782,-0.660143,0.747473
132.621942,0.286566,0.062634,0.054967,-0.045353,0.327133,9.695605,0.070162,-0.028646,-0.65987,0.747548
132.634806,0.269938,0.050516,0.051018,-0.031051,0.329849,9.723605,0.071459,-0.029399,-0.659583,0.747649
132.641898,0.262766,0.039957,0.046606,-0.033168,0.326546,9.754165,0.072647,-0.030131,-0.659315,0.747742
132.654638,0.262587,0.031143,0.042724,-0.001512,0.330378,9.794934,0.07377,-0.030874,-0.659082,0.747807
132.661892,0.262586,0.023922,0.039309,0.008778,0.323161,9.835025,0.07486,-0.03164,-0.658852,0.74787
132.674684,0.254705,0.014749,0.040461,-0.010333,0.279055,9.879061,0.075922,-0.032432,-0.658635,0.74792
132.681923,0.232565,0.005776,0.046316,-0.002377,0.276506,9.954128,0.076917,-0.033232,-0.658417,0.747975
132.694632,0.197905,-0.002955,0.054668,-0.018256,0.271042,10.02315,0.077792,-0.034,-0.658199,0.748042
132.701891,0.155771,-0.008247,0.066359,-0.041488,0.248471,10.08701,0.078511,-0.034691,-0.657942,0.748161
132.71497,0.113686,-0.009858,0.075238,-0.039037,0.26131,10.158255,0.079056,-0.03527,-0.657653,0.74833
132.721808,0.083978,-0.009251,0.078781,-0.043399,0.272829,10.200431,0.079437,-0.035725,-0.657357,0.748529
132.734664,0.064522,-0.008931,0.07684,-0.055735,0.261169,10.213841,0.079705,-0.036078,-0.657035,0.748766
132.741943,0.052449,-0.011254,0.07167,-0.051053,0.271651,10.235701,0.079899,-0.036364,-0.656723,0.749005
132.754642,0.044834,-0.014689,0.068346,-0.056118,0.272584,10.251108,0.080036,-0.036613,-0.656433,0.749233
132.761796,0.039126,-0.01712,0.070092,-0.042251,0.292469,10.268764,0.080132,-0.036846,-0.656158,0.749452
132.774665,0.030714,-0.014609,0.076347,-0.02654,0.313185,10.271666,0.080198,-0.037071,-0.655877,0.749679
132.781945,0.01989,-0.013929,0.083786,-0.065391,0.286199,10.255796,0.08024,-0.037264,-0.655575,0.74993
132.794653,0.00608,-0.016454,0.091353,-0.068723,0.303872,10.252379,0.080245,-0.037424,-0.655238,0.750215
132.801888,-0.013305,-0.021223,0.095482,-0.080437,0.30125,10.243995,0.080191,-0.037556,-0.654884,0.750523
132.816096,-0.03752,-0.02287,0.097282,-0.078602,0.300623,10.232255,0.080053,-0.037646,-0.654519,0.750852
132.821947,-0.059775,-0.020641,0.097744,-0.090448,0.293656,10.204906,0.079825,-0.03767,-0.654151,0.751196
132.834804,-0.071657,-0.016433,0.095094,-0.109896,0.283935,10.186087,0.079528,-0.037618,-0.653784,0.751549
132.841932,-0.072332,-0.015562,0.091862,-0.120237,0.293802,10.164966,0.079202,-0.037516,-0.653427,0.7519
132.854801,-0.064543,-0.013846,0.089736,-0.126833,0.288177,10.148392,0.07888,-0.037408,-0.65308,0.75224
132.861887,-0.054771,-0.008713,0.090607,-0.137072,0.278476,10.134217,0.078593,-0.037317,-0.652746,0.752564
132.874702,-0.049192,-0.000268,0.09369,-0.131111,0.279447,10.139841,0.078358,-0.037236,-0.652398,0.752895
132.881882,-0.057725,0.005797,0.09756,-0.115906,0.265278,10.141776,0.078126,-0.037122,-0.652037,0.753237
132.89464,-0.077922,0.010044,0.10415,-0.109618,0.256524,10.141294,0.077842,-0.036937,-0.651666,0.753596
132.904101,-0.097295,0.010187,0.110565,-0.111638,0.267754,10.141041,0.077493,-0.036672,-0.65127,0.753988
132.914979,-0.107818,0.007446,0.113366,-0.104424,0.282531,10.139269,0.077069,-0.036341,-0.650853,0.754407
132.921879,-0.107893,0.001583,0.113652,-0.094188,0.279013,10.136554,0.076592,-0.035983,-0.650429,0.754839
132.934618,-0.101333,-0.003624,0.113738,-0.08819,0.279132,10.148938,0.076093,-0.03564,-0.649991,0.755282
132.941881,-0.094705,-0.007785,0.111748,-0.094161,0.290018,10.151229,0.075598,-0.035335,-0.649567,0.755711
132.954806,-0.097007,-0.013083,0.110308,-0.096915,0.322433,10.145417,0.075112,-0.035064,-0.649151,0.75613
132.961822,-0.117104,-0.01877,0.115142,-0.108731,0.336684,10.109137,0.074598,-0.034804,-0.64874,0.756545
132.974616,-0.147982,-0.022644,0.117861,-0.10809,0.351025,10.074393,0.073995,-0.034505,-0.648319,0.756978
132.981879,-0.177708,-0.026532,0.114906,-0.118542,0.346573,10.04493,0.073264,-0.034126,-0.647895,0.75743
132.994636,-0.183611,-0.03119,0.110767,-0.139037,0.340415,10.020204,0.072418,-0.033671,-0.647474,0.757891
133.00188,-0.17611,-0.032719,0.111205,-0.161322,0.340869,9.989778,0.071536,-0.033213,-0.647081,0.758331
133.014974,-0.173486,-0.028342,0.114703,-0.181729,0.332194,9.959517,0.070676,-0.032783,-0.646685,0.758768
133.022027,-0.17411,-0.01776,0.116059,-0.189837,0.328883,9.926633,0.069839,-0.032347,-0.646274,0.759214
133.034803,-0.162664,-0.007532,0.111247,-0.189685,0.327108,9.894278,0.069037,-0.031876,-0.645849,0.759669
133.041803,-0.140588,-0.002322,0.097969,-0.175289,0.326981,9.876115,0.068307,-0.031401,-0.645443,0.7601
133.054668,-0.118675,-0.000439,0.08951,-0.15813,0.325885,9.867708,0.067676,-0.03097,-0.645076,0.760485
133.061876,-0.115447,0.000493,0.090846,-0.151624,0.314252,9.875333,0.067129,-0.030594,-0.644732,0.760841
133.074619,-0.127849,0.007228,0.096278,-0.145556,0.300621,9.896979,0.066599,-0.030224,-0.644386,0.761195
133.081798,-0.137738,0.012034,0.096314,-0.141807,0.302174,9.937851,0.066005,-0.029771,-0.644025,0.76157
133.094746,-0.129336,0.010931,0.089609,-0.141981,0.29953,9.98026,0.065352,-0.029248,-0.643662,0.761953
133.101813,-0.109795,0.007816,0.080693,-0.138799,0.298213,10.025432,0.064728,-0.02875,-0.643327,0.762309
133.115004,-0.096019,0.002418,0.077504,-0.133891,0.288025,10.07652,0.064165,-0.028319,-0.643021,0.76263
133.121948,-0.099845,-0.003344,0.084221,-0.131357,0.289371,10.125292,0.063637,-0.027949,-0.642726,0.762937
133.134742,-0.122294,-0.008058,0.089558,-0.142644,0.287074,10.16327,0.063075,-0.027587,-0.642409,0.763263
133.141809,-0.140045,-0.01466,0.086644,-0.157037,0.286631,10.184999,0.062418,-0.02718,-0.642079,0.763609
133.154615,-0.145501,-0.021342,0.076435,-0.158907,0.293664,10.20219,0.061673,-0.026738,-0.641765,0.76395
133.162492,-0.143572,-0.025161,0.068443,-0.167978,0.290115,10.214739,0.060886,-0.026299,-0.641482,0.764266
133.17462,-0.153516,-0.026797,0.067995,-0.167654,0.293344,10.228065,0.060087,-0.025872,-0.641236,0.76455
133.181873,-0.175723,-0.019011,0.073436,-0.163106,0.300984,10.241935,0.059247,-0.025417,-0.640993,0.764835
133.198059,-0.197245,-0.007382,0.076474,-0.142041,0.316829,10.258413,0.058347,-0.024868,-0.64073,0.765142
133.201882,-0.205866,-0.00091,0.071335,-0.121856,0.330514,10.264839,0.057404,-0.024214,-0.640456,0.765464
133.21498,-0.205936,-0.000445,0.060052,-0.099555,0.353352,10.268658,0.056451,-0.023508,-0.640199,0.765771
133.221906,-0.202351,-0.00424,0.048915,-0.076184,0.358745,10.257298,0.055505,-0.0228,-0.639982,0.766043
133.23481,-0.214596,-0.011514,0.045364,-0.051657,0.360719,10.252954,0.054558,-0.022115,-0.639806,0.766278
133.241808,-0.244987,-0.017831,0.047481,-0.037591,0.371412,10.25172,0.053546,-0.021418,-0.639646,0.766503
133.254612,-0.282289,-0.023544,0.0522,-0.056162,0.379675,10.252816,0.052399,-0.020653,-0.639481,0.766741
133.261886,-0.305199,-0.028876,0.051999,-0.075291,0.397479,10.263607,0.051097,-0.019796,-0.639303,0.767
133.274573,-0.307493,-0.036066,0.047402,-0.095275,0.398078,10.285958,0.049688,-0.018886,-0.639128,0.767261
133.281804,-0.294628,-0.042596,0.043356,-0.103828,0.410014,10.323558,0.048237,-0.017978,-0.638972,0.767506
133.29464,-0.289925,-0.044268,0.043882,-0.121767,0.384423,10.359049,0.046799,-0.017114,-0.63883,0.767733
133.301802,-0.293169,-0.037932,0.048298,-0.128304,0.359778,10.399245,0.045372,-0.016267,-0.638675,0.767965
133.314943,-0.301289,-0.028228,0.046265,-0.130466,0.341795,10.433205,0.043951,-0.015386,-0.638513,0.768201
133.321808,-0.303294,-0.02022,0.034483,-0.118742,0.338538,10.476182,0.042531,-0.014444,-0.638356,0.768429
133.334618,-0.297294,-0.013394,0.018303,-0.117299,0.348084,10.501113,0.041131,-0.013462,-0.638239,0.768621
133.341795,-0.294059,-0.006827,0.005868,-0.120296,0.36208,10.502639,0.039775,-0.012468,-0.63818,0.768758
133.354539,-0.311102,-0.002164,0.002719,-0.129363,0.364996,10.504478,0.03845,-0.011455,-0.638165,0.768854
133.361806,-0.344623,0.000916,0.008261,-0.129246,0.369665,10.5038,0.037077,-0.010371,-0.63816,0.768941
133.374587,-0.382527,0.001245,0.012905,-0.133535,0.361328,10.490133,0.035588,-0.009174,-0.638133,0.769048
133.381803,-0.404362,-0.001783,0.00995,-0.131345,0.369204,10.463368,0.03396,-0.00786,-0.638091,0.769171
133.394638,-0.400049,-0.006321,0.000955,-0.118797,0.385925,10.441215,0.032245,-0.006493,-0.638058,0.769285
133.401808,-0.38533,-0.010969,-0.005898,-0.104483,0.400477,10.404825,0.030531,-0.005154,-0.638056,0.769367
133.41497,-0.382249,-0.015261,-0.007506,-0.092868,0.398427,10.368377,0.028856,-0.003878,-0.638075,0.769424
133.42189,-0.39032,-0.013899,-0.006917,-0.069495,0.393988,10.34233,0.027183,-0.002631,-0.638098,0.76947
133.434659,-0.383855,-0.008357,-0.008381,-0.048722,0.400888,10.323159,0.025493,-0.001361,-0.63812,0.769513
133.441807,-0.351945,-0.002151,-0.014087,-0.034395,0.400681,10.293955,0.02385,-9.7e-05,-0.638143,0.769549
133.454612,-0.314063,0.005148,-0.016856,-0.027148,0.40831,10.265312,0.022348,0.00109,-0.638182,0.76956
133.461885,-0.290595,0.017241,-0.013525,-0.034223,0.41548,10.238481,0.021011,0.002192,-0.638229,0.769557
133.474632,-0.272527,0.027854,-0.014124,-0.035103,0.426759,10.218552,0.019802,0.003264,-0.638274,0.769548
133.482616,-0.248799,0.0304,-0.023713,-0.040997,0.444373,10.19316,0.018771,0.004282,-0.638309,0.769539
133.494607,-0.229677,0.028191,-0.033837,-0.0547,0.45491,10.155231,0.017909,0.005205,-0.638378,0.769497
133.501794,-0.234517,0.026866,-0.031557,-0.062128,0.46208,10.119678,0.017102,0.006071,-0.638486,0.76942
133.514985,-0.25437,0.029524,-0.024061,-0.057616,0.475244,10.105358,0.01627,0.006952,-0.638582,0.769351
133.521871,-0.255369,0.031396,-0.022268,-0.052682,0.479874,10.08705,0.015375,0.007899,-0.63865,0.769303
133.534604,-0.230764,0.030119,-0.02517,-0.050971,0.48827,10.065712,0.014485,0.008854,-0.638709,0.769261
133.54188,-0.209695,0.026576,-0.023056,-0.053605,0.494405,10.045934,0.013678,0.009728,-0.638789,0.769199
133.554615,-0.201033,0.022834,-0.021506,-0.051843,0.497565,10.025175,0.012945,0.010521,-0.638849,0.769151
133.561886,-0.184948,0.015297,-0.03047,-0.055729,0.501787,10.000927,0.012243,0.011259,-0.638905,0.769105
133.574619,-0.161535,0.002817,-0.042961,-0.079314,0.495928,9.987395,0.011583,0.011911,-0.639005,0.769023
133.581887,-0.154357,-0.008304,-0.041785,-0.071895,0.498016,9.984532,0.010972,0.012445,-0.639139,0.768912
133.594609,-0.16349,-0.010638,-0.033823,-0.06804,0.480249,9.984563,0.010356,0.012912,-0.639271,0.768803
133.601806,-0.160141,-0.011782,-0.031374,-0.057856,0.469766,9.982511,0.009705,0.013391,-0.639385,0.768709
133.614988,-0.140527,-0.016542,-0.032769,-0.042429,0.453175,9.976897,0.009063,0.013855,-0.639481,0.768629
133.621917,-0.139063,-0.023705,-0.032061,-0.033235,0.437749,9.968982,0.008469,0.01425,-0.639582,0.768544
133.63481,-0.16058,-0.025187,-0.031387,-0.034788,0.415025,9.96299,0.007855,0.014621,-0.639682,0.768461
133.641916,-0.174263,-0.024696,-0.03691,-0.047728,0.388697,9.942931,0.007156,0.015053,-0.639784,0.768374
133.654797,-0.165911,-0.028793,-0.043126,-0.073285,0.374296,9.926411,0.006404,0.015529,-0.639899,0.768275
133.661811,-0.164806,-0.03262,-0.040692,-0.097498,0.372665,9.915204,0.005661,0.015972,-0.640035,0.768159
133.674568,-0.186053,-0.034811,-0.03469,-0.101488,0.388469,9.909448,0.004908,0.016396,-0.640176,0.768038
133.682361,-0.196198,-0.033491,-0.036477,-0.085178,0.424854,9.908142,0.004082,0.016868,-0.640281,0.767945
133.694634,-0.203801,-0.033707,-0.035138,-0.064426,0.454266,9.909457,0.003145,0.017393,-0.640388,0.767848
133.701801,-0.21814,-0.030465,-0.02744,-0.042652,0.46274,9.902742,0.002184,0.017939,-0.640487,0.767756
133.715072,-0.22183,-0.032837,-0.029567,-0.034711,0.455033,9.890553,0.001184,0.018533,-0.640573,0.767673
133.721878,-0.209312,-0.038242,-0.04107,-0.043206,0.437283,9.87425,0.000163,0.019135,-0.640653,0.767592
133.734667,-0.208342,-0.044591,-0.042585,-0.064713,0.426237,9.857825,-0.000844,0.019691,-0.640773,0.767478
133.741806,-0.219197,-0.050778,-0.031676,-0.081671,0.410156,9.843377,-0.001874,0.020227,-0.640908,0.767349
133.754629,-0.217476,-0.054123,-0.02294,-0.087218,0.4199,9.832415,-0.002963,0.020776,-0.640992,0.76726
133.761809,-0.198512,-0.058229,-0.023711,-0.079084,0.432582,9.830994,-0.004056,0.021307,-0.641045,0.767197
133.774592,-0.196446,-0.061984,-0.026613,-0.075982,0.435607,9.832031,-0.005098,0.021766,-0.641108,0.767125
133.781886,-0.212229,-0.061743,-0.030611,-0.087464,0.424496,9.824685,-0.006136,0.022199,-0.641171,0.767052
133.794642,-0.216839,-0.05969,-0.037889,-0.096602,0.421477,9.823269,-0.007218,0.022666,-0.641248,0.766965
133.802001,-0.201067,-0.058761,-0.042645,-0.091762,0.431182,9.821838,-0.0083,0.023142,-0.641349,0.766855
133.814987,-0.195515,-0.057229,-0.036536,-0.077784,0.451616,9.82837,-0.009322,0.023572,-0.64147,0.766729
133.821908,-0.20067,-0.053997,-0.029783,-0.057782,0.457845,9.84541,-0.010316,0.02399,-0.641568,0.766622
133.834838,-0.192089,-0.05104,-0.03194,-0.04668,0.455674,9.857102,-0.01132,0.024439,-0.641641,0.766532
133.841802,-0.16587,-0.052633,-0.039936,-0.048013,0.448338,9.843637,-0.012294,0.024881,-0.641728,0.76643
133.854594,-0.157357,-0.054779,-0.039368,-0.061447,0.444961,9.82228,-0.013195,0.025256,-0.641839,0.76631
133.861808,-0.158589,-0.054945,-0.035202,-0.080484,0.422314,9.799823,-0.014074,0.025601,-0.641951,0.766189
133.874576,-0.144368,-0.057152,-0.039608,-0.102297,0.41657,9.771961,-0.014955,0.025946,-0.642048,0.766079
133.881791,-0.131851,-0.059312,-0.044746,-0.100644,0.410008,9.739988,-0.015752,0.026206,-0.642176,0.765947
133.894643,-0.137467,-0.055747,-0.03988,-0.091453,0.408732,9.711464,-0.016466,0.02638,-0.642306,0.765817
133.901882,-0.13649,-0.049062,-0.03641,-0.073615,0.425006,9.682143,-0.017173,0.026567,-0.642421,0.765699
133.915056,-0.118791,-0.04196,-0.039757,-0.065152,0.457396,9.663457,-0.017841,0.026763,-0.64253,0.765586
133.921803,-0.117373,-0.038766,-0.043277,-0.048391,0.495207,9.639053,-0.018423,0.026929,-0.642646,0.765468
133.936216,-0.126485,-0.033872,-0.047172,-0.029682,0.525243,9.617767,-0.018987,0.027103,-0.642777,0.765338
133.941814,-0.111638,-0.032647,-0.049571,-0.020567,0.550561,9.594763,-0.019571,0.027326,-0.642933,0.765185
133.954585,-0.089133,-0.032294,-0.043574,-0.027313,0.562186,9.571196,-0.020116,0.027526,-0.643087,0.765034
133.961994,-0.070836,-0.027263,-0.034998,-0.029007,0.562228,9.546303,-0.020588,0.027674,-0.643223,0.764902
133.974667,-0.010402,-0.022597,-0.039152,-0.029356,0.537696,9.5203,-0.020967,0.027775,-0.643333,0.764795
133.981801,0.094739,-0.015261,-0.046297,-0.041488,0.49637,9.490343,-0.021096,0.027699,-0.643486,0.764666
133.99459,0.216198,0.001977,-0.045718,-0.043844,0.476096,9.474014,-0.020799,0.027311,-0.643656,0.764544
134.001885,0.353342,0.022139,-0.046431,-0.05651,0.450027,9.456213,-0.019968,0.02658,-0.643845,0.764433
134.014973,0.463227,0.0408,-0.046861,-0.049258,0.436676,9.444934,-0.01855,0.025482,-0.644082,0.764307
134.021885,0.535811,0.058201,-0.047383,-0.040399,0.444886,9.443365,-0.016648,0.024097,-0.644305,0.764208
134.034807,0.583572,0.065585,-0.053443,-0.039975,0.456895,9.431478,-0.014413,0.022539,-0.644538,0.764104
134.041878,0.571425,0.065903,-0.053367,-0.040495,0.494077,9.408192,-0.01199,0.020876,-0.644827,0.763949
134.054482,0.527686,0.063808,-0.051501,-0.051195,0.534621,9.377296,-0.009617,0.019259,-0.645076,0.763815
134.061814,0.487117,0.060193,-0.049559,-0.055989,0.557042,9.333495,-0.007421,0.017785,-0.645309,0.763679
134.074658,0.436412,0.055261,-0.045356,-0.059135,0.54354,9.280659,-0.005408,0.016441,-0.645525,0.763543
134.081722,0.380343,0.056267,-0.042742,-0.05693,0.520697,9.230042,-0.003574,0.015225,-0.645751,0.763388
134.094516,0.358616,0.056575,-0.045045,-0.046159,0.504046,9.180502,-0.001903,0.014151,-0.645929,0.763264
134.101802,0.354829,0.052489,-0.046277,-0.047026,0.488862,9.126867,-0.000303,0.013134,-0.646111,0.763131
134.114953,0.344876,0.050823,-0.045906,-0.066316,0.484694,9.075586,0.001279,0.012108,-0.646321,0.762968
134.121693,0.352112,0.049212,-0.048499,-0.084416,0.463831,9.017566,0.002828,0.011097,-0.646502,0.762827
134.134505,0.349769,0.048655,-0.043325,-0.109838,0.445714,8.96268,0.004386,0.010068,-0.646686,0.762677
134.141807,0.339626,0.050316,-0.037974,-0.131344,0.423799,8.909468,0.005928,0.009049,-0.64685,0.76254
134.154516,0.334384,0.047688,-0.045283,-0.138828,0.404171,8.863766,0.007432,0.008071,-0.647027,0.762388
134.161689,0.319025,0.042674,-0.046388,-0.147977,0.381142,8.821624,0.008901,0.00711,-0.64719,0.762244
134.174611,0.302549,0.040523,-0.043911,-0.149101,0.358426,8.793844,0.010302,0.006177,-0.647357,0.762093
134.181809,0.301431,0.034823,-0.047991,-0.14414,0.338029,8.78597,0.011641,0.005278,-0.647538,0.761926
134.19451,0.284573,0.027581,-0.050252,-0.126678,0.335133,8.808305,0.012951,0.004368,-0.647707,0.761767
134.201715,0.27166,0.022352,-0.045286,-0.102645,0.347039,8.83671,0.014175,0.003482,-0.647883,0.7616
134.214967,0.280169,0.017107,-0.036627,-0.083841,0.3594,8.864184,0.01533,0.002622,-0.648057,0.761433
134.221805,0.274437,0.010218,-0.030974,-0.071244,0.373975,8.899101,0.01648,0.001732,-0.648181,0.761306
134.234661,0.252089,0.001134,-0.036912,-0.074191,0.391394,8.942616,0.017579,0.00084,-0.648285,0.761194
134.241807,0.246035,-0.011834,-0.04834,-0.079138,0.405068,8.974105,0.018576,-2.5e-05,-0.648411,0.761064
134.254514,0.240253,-0.028128,-0.046517,-0.090988,0.385104,8.99456,0.019514,-0.000927,-0.648595,0.760883
134.261698,0.216363,-0.036997,-0.039092,-0.095303,0.36619,9.005386,0.020387,-0.001874,-0.648754,0.760723
134.274483,0.193532,-0.04403,-0.04215,-0.106195,0.349749,9.020008,0.021153,-0.002795,-0.648889,0.760584
134.284094,0.178169,-0.050633,-0.046142,-0.128016,0.322993,9.039684,0.021813,-0.003672,-0.64905,0.760424
134.294533,0.154403,-0.047486,-0.035254,-0.153418,0.285922,9.062657,0.022348,-0.004443,-0.649208,0.76027
134.301794,0.134659,-0.036806,-0.023654,-0.173256,0.263512,9.08122,0.022798,-0.005123,-0.649327,0.76015
134.314937,0.130093,-0.02482,-0.02954,-0.185099,0.258312,9.094169,0.023205,-0.005697,-0.649406,0.760066
134.32171,0.119146,-0.019446,-0.038431,-0.19599,0.266016,9.098714,0.02362,-0.006205,-0.649517,0.759955
134.334511,0.094231,-0.016963,-0.036168,-0.199667,0.26573,9.106728,0.024012,-0.006654,-0.649641,0.759833
134.341805,0.078242,-0.013045,-0.033818,-0.193075,0.273527,9.127293,0.02433,-0.007021,-0.64976,0.759718
134.354565,0.078488,-0.010215,-0.037868,-0.19274,0.286619,9.145847,0.024605,-0.007329,-0.649898,0.759588
134.361682,0.066952,-0.00783,-0.036584,-0.200777,0.283021,9.155085,0.024881,-0.007616,-0.650021,0.759471
134.374492,0.054923,0.000428,-0.029121,-0.228332,0.278272,9.175473,0.025126,-0.007855,-0.650139,0.759359
134.3818,0.056144,0.003287,-0.030407,-0.241359,0.267112,9.197438,0.025346,-0.008027,-0.650249,0.759256
134.394538,0.045686,0.001855,-0.03115,-0.250053,0.254183,9.212204,0.025565,-0.008178,-0.650345,0.759165
134.40168,0.025845,0.003369,-0.030411,-0.248765,0.239956,9.222995,0.02574,-0.008296,-0.650444,0.759072
134.41498,0.021702,0.004184,-0.036005,-0.230957,0.238263,9.232205,0.025849,-0.008352,-0.650544,0.758983
134.42188,0.032746,0.001966,-0.045152,-0.211102,0.239571,9.243078,0.02595,-0.008398,-0.650674,0.758867
134.434694,0.025125,0.003562,-0.045976,-0.190577,0.245307,9.250257,0.026086,-0.008484,-0.650826,0.758732
134.44223,0.00254,0.014261,-0.036641,-0.181338,0.248882,9.25466,0.026208,-0.008545,-0.650979,0.758595
134.454543,-0.008888,0.023768,-0.032192,-0.180977,0.242779,9.276583,0.026287,-0.008505,-0.651113,0.758478
134.461707,-0.002475,0.027972,-0.036057,-0.179908,0.240383,9.305086,0.026354,-0.008391,-0.651218,0.758386
134.474564,-0.008413,0.023546,-0.04047,-0.181256,0.23583,9.323575,0.026443,-0.00827,-0.651336,0.758284
134.481802,-0.035032,0.018204,-0.040864,-0.180615,0.237674,9.337099,0.026491,-0.008136,-0.651469,0.758169
134.494581,-0.058873,0.012165,-0.039972,-0.177074,0.245096,9.359714,0.026424,-0.007941,-0.651606,0.758055
134.501807,-0.064216,0.005698,-0.038867,-0.167415,0.2478,9.377594,0.026253,-0.007697,-0.651742,0.757947
134.514988,-0.071451,-0.001381,-0.033539,-0.147004,0.258229,9.383476,0.026037,-0.007461,-0.651872,0.757845
134.521802,-0.098071,-0.004195,-0.027955,-0.137304,0.280206,9.413417,0.025772,-0.007227,-0.651998,0.757748
134.534582,-0.126198,-0.00574,-0.025039,-0.129762,0.29245,9.449453,0.025403,-0.006925,-0.652091,0.757683
134.541805,-0.130582,-0.010917,-0.023777,-0.132536,0.297811,9.469636,0.024927,-0.006542,-0.652174,0.757631
134.55457,-0.124161,-0.019981,-0.018253,-0.137533,0.290552,9.48249,0.024409,-0.006155,-0.652263,0.757574
134.561876,-0.121087,-0.028801,-0.01105,-0.142536,0.283217,9.497922,0.023875,-0.00581,-0.652322,0.757544
134.574563,-0.118685,-0.039271,-0.013722,-0.150593,0.293446,9.513619,0.023316,-0.005503,-0.652357,0.757533
134.581887,-0.104175,-0.047141,-0.023919,-0.152368,0.300857,9.537067,0.022732,-0.00524,-0.652404,0.757512
134.594611,-0.087234,-0.050064,-0.023021,-0.171277,0.293103,9.550271,0.022176,-0.005054,-0.652488,0.757458
134.601811,-0.090029,-0.042752,-0.009365,-0.18366,0.281811,9.552494,0.021676,-0.004934,-0.652564,0.757408
134.614973,-0.097906,-0.026874,0.002217,-0.181221,0.280665,9.555478,0.0212,-0.004793,-0.65259,0.757399
134.621879,-0.094233,-0.014119,0.000865,-0.171779,0.28056,9.565325,0.020756,-0.004584,-0.652589,0.757414
134.635244,-0.08396,-0.00889,-0.004643,-0.159696,0.287592,9.576971,0.020372,-0.004344,-0.652573,0.757439
134.641803,-0.091247,-0.008023,0.000288,-0.140214,0.287366,9.583399,0.020041,-0.004112,-0.652573,0.757449
134.654586,-0.110197,-0.004538,0.009891,-0.130845,0.296258,9.587802,0.019686,-0.00385,-0.652557,0.757474
134.661796,-0.111206,-0.004465,0.012158,-0.12932,0.296107,9.586883,0.019271,-0.003516,-0.652515,0.757523
134.674569,-0.088785,-0.008854,0.004817,-0.131356,0.294002,9.598659,0.018848,-0.003171,-0.652459,0.757583
134.681894,-0.067544,-0.015567,0.002737,-0.136217,0.292466,9.611837,0.018485,-0.002908,-0.652426,0.757621
134.694508,-0.063925,-0.018366,0.008007,-0.131949,0.293598,9.615083,0.018174,-0.002735,-0.652421,0.757634
134.701805,-0.061022,-0.01745,0.010045,-0.133566,0.303139,9.614684,0.017871,-0.002588,-0.652379,0.757678
134.714948,-0.042725,-0.017417,0.007145,-0.135027,0.305929,9.60874,0.01759,-0.002457,-0.652329,0.757728
134.721802,-0.035563,-0.018796,0.009681,-0.134512,0.324655,9.605791,0.017374,-0.002385,-0.652288,0.757768
134.734593,-0.041959,-0.014579,0.018925,-0.126231,0.337054,9.597606,0.01719,-0.002347,-0.652234,0.757819
134.741812,-0.037875,-0.008325,0.026173,-0.119124,0.349079,9.595244,0.017006,-0.002286,-0.652146,0.757899
134.754635,-0.017383,-0.007632,0.026735,-0.105838,0.356112,9.594795,0.01686,-0.002221,-0.652032,0.758001
134.76181,-0.012794,-0.00742,0.023781,-0.093424,0.374575,9.607456,0.016785,-0.00221,-0.651928,0.758092
134.774617,-0.028056,-0.00348,0.02136,-0.070921,0.380809,9.624833,0.016727,-0.002205,-0.651821,0.758185
134.781795,-0.030212,0.000578,0.018354,-0.059522,0.37154,9.628613,0.016627,-0.002139,-0.651724,0.758271
134.794921,-0.013898,0.000884,0.018505,-0.060524,0.356931,9.621918,0.016525,-0.002045,-0.651656,0.758332
134.801807,-0.006505,-0.001269,0.024446,-0.072206,0.335666,9.604823,0.016472,-0.001988,-0.651569,0.758408
134.814994,-0.012138,-0.004196,0.02599,-0.092318,0.326853,9.583794,0.016434,-0.001958,-0.651463,0.7585
134.82192,-0.010131,-0.009516,0.014994,-0.103028,0.327297,9.582986,0.016365,-0.001925,-0.651366,0.758585
134.834671,0.00093,-0.018794,0.002233,-0.101622,0.305756,9.58009,0.016289,-0.001921,-0.651294,0.758648
134.841799,-0.007866,-0.024174,0.004378,-0.09816,0.309376,9.56799,0.016225,-0.001985,-0.651267,0.758673
134.854653,-0.022593,-0.024084,0.012971,-0.09575,0.327762,9.554047,0.016121,-0.002052,-0.651233,0.758704
134.861806,-0.015784,-0.023009,0.013708,-0.104985,0.349846,9.542794,0.015974,-0.002085,-0.65119,0.758744
134.874567,-0.003332,-0.024612,0.00742,-0.124165,0.357377,9.525396,0.015855,-0.002136,-0.651124,0.758802
134.881806,-0.010189,-0.025043,0.004472,-0.137178,0.368043,9.506402,0.015765,-0.002218,-0.65108,0.758842
134.89456,-0.019577,-0.022385,0.004833,-0.14405,0.385008,9.490525,0.015641,-0.002275,-0.651066,0.758857
134.901808,-0.001782,-0.019882,0.004011,-0.151329,0.400481,9.477722,0.015495,-0.002294,-0.651035,0.758886
134.914975,0.018164,-0.018268,0.003826,-0.156062,0.39756,9.470394,0.015411,-0.002348,-0.651007,0.758912
134.921805,0.024257,-0.017395,0.004502,-0.15104,0.374948,9.456518,0.015397,-0.002451,-0.650979,0.758936
134.934624,0.028413,-0.018412,-0.004917,-0.150407,0.371838,9.448056,0.015405,-0.002569,-0.650968,0.758945
134.94181,0.046746,-0.017865,-0.017199,-0.153375,0.386311,9.453866,0.015433,-0.002705,-0.650974,0.758938
134.954638,0.052781,-0.020379,-0.017901,-0.159084,0.393627,9.456862,0.015527,-0.002897,-0.651021,0.758895
134.961804,0.037533,-0.019035,-0.009912,-0.161177,0.38268,9.467795,0.015644,-0.003121,-0.651092,0.758831
134.974544,0.028086,-0.014947,-0.007384,-0.155659,0.371186,9.493945,0.015722,-0.003306,-0.651114,0.75881
134.981795,0.038044,-0.014449,-0.013492,-0.154209,0.362976,9.534623,0.015784,-0.003458,-0.651128,0.758796
134.99454,0.047001,-0.018541,-0.014945,-0.146735,0.361076,9.590008,0.015884,-0.003639,-0.651179,0.758749
135.001796,0.038703,-0.02053,-0.006205,-0.135969,0.361932,9.656796,0.016001,-0.003858,-0.651216,0.758714
135.014973,0.024107,-0.015377,0.001048,-0.124336,0.355888,9.722511,0.016081,-0.004056,-0.651224,0.758704
135.021934,0.02312,-0.014838,0.001792,-0.112345,0.37257,9.78647,0.016118,-0.004188,-0.651207,0.758718
135.034653,0.0378,-0.016352,-0.002887,-0.107779,0.379623,9.839542,0.016148,-0.004306,-0.651201,0.758722
135.041808,0.046826,-0.018567,0.001196,-0.100145,0.38485,9.879005,0.016216,-0.004464,-0.651195,0.758724
135.054582,0.03578,-0.017616,0.011931,-0.105668,0.368648,9.904466,0.016303,-0.00465,-0.651174,0.758739
135.061714,0.023413,-0.023215,0.008825,-0.120433,0.358681,9.935012,0.01635,-0.004804,-0.651138,0.758768
135.07453,0.015362,-0.027613,-0.004044,-0.127487,0.341675,9.937956,0.016335,-0.004935,-0.651093,0.758806
135.08631,-0.003994,-0.030265,-0.006878,-0.13013,0.324278,9.936131,0.01628,-0.005062,-0.651092,0.758808
135.094591,-0.043355,-0.026348,0.003301,-0.136758,0.299648,9.929121,0.01615,-0.005145,-0.6511,0.758802
135.101837,-0.076124,-0.018516,0.013255,-0.13543,0.309687,9.921115,0.015895,-0.005098,-0.651077,0.758828
135.114927,-0.078006,-0.016015,0.013314,-0.153472,0.323182,9.901419,0.015548,-0.004928,-0.651015,0.75889
135.121885,-0.058232,-0.019637,0.004908,-0.170462,0.314874,9.870492,0.015205,-0.004746,-0.650953,0.758951
135.13454,-0.052728,-0.025111,-0.000257,-0.172022,0.305683,9.831139,0.014918,-0.004633,-0.650929,0.758978
135.141716,-0.059517,-0.026512,0.000793,-0.154169,0.306872,9.78371,0.014636,-0.004557,-0.650914,0.758996
135.154586,-0.052221,-0.027855,0.003678,-0.136999,0.318553,9.742228,0.014327,-0.004471,-0.650898,0.759016
135.1618,-0.028215,-0.029021,0.006825,-0.138756,0.328736,9.702436,0.014041,-0.004412,-0.650889,0.75903
135.174969,-0.015632,-0.030259,0.012043,-0.130657,0.32442,9.668535,0.013831,-0.004424,-0.65085,0.759068
135.181801,-0.025261,-0.033423,0.013198,-0.13085,0.322801,9.645197,0.013657,-0.004475,-0.650793,0.759119
135.194703,-0.032977,-0.036736,0.004901,-0.133737,0.323451,9.627395,0.01344,-0.004507,-0.650734,0.759174
135.201804,-0.020919,-0.042394,-0.002417,-0.136336,0.321831,9.616272,0.013188,-0.004532,-0.650721,0.759188
135.214969,-0.012627,-0.045327,0.003268,-0.143725,0.309487,9.609309,0.01296,-0.004612,-0.650716,0.759197
135.221882,-0.021337,-0.038835,0.014224,-0.145522,0.293256,9.598924,0.012756,-0.004732,-0.65069,0.759222
135.234664,-0.030367,-0.030189,0.015487,-0.145589,0.2984,9.595296,0.01255,-0.004813,-0.650635,0.759271
135.241719,-0.02201,-0.025141,0.004336,-0.130344,0.312415,9.589435,0.012347,-0.004844,-0.650565,0.759335
135.254542,-0.005059,-0.021896,-0.003935,-0.107064,0.3294,9.589386,0.012193,-0.004885,-0.650533,0.759365
135.261803,-0.006564,-0.01402,0.006617,-0.084091,0.333618,9.595966,0.012109,-0.004959,-0.650526,0.759371
135.274881,-0.012548,-0.001879,0.019641,-0.06397,0.343263,9.600351,0.012047,-0.005,-0.650497,0.759397
135.281809,-0.003848,0.004421,0.017601,-0.053111,0.35896,9.615709,0.012005,-0.004978,-0.65041,0.759472
135.294658,0.015155,0.004084,0.003534,-0.039856,0.379502,9.627048,0.012016,-0.004955,-0.650331,0.75954
135.301803,0.019708,0.000879,-0.004164,-0.037493,0.395324,9.635374,0.012088,-0.004981,-0.650316,0.759552
135.314931,-0.000579,-0.000557,0.003181,-0.038159,0.398183,9.639311,0.012162,-0.005026,-0.650311,0.759554
135.321702,-0.017931,-0.002194,0.010466,-0.045169,0.394556,9.641349,0.012158,-0.005016,-0.650284,0.759578
135.334583,-0.010966,-0.006104,0.007785,-0.051771,0.39026,9.656742,0.012088,-0.004964,-0.650245,0.759612
135.344104,0.004297,-0.010055,0.000494,-0.072329,0.3943,9.663868,0.01203,-0.00495,-0.6502,0.759651
135.354527,-0.003454,-0.014589,-1.2e-05,-0.072064,0.399698,9.677467,0.012012,-0.004999,-0.65018,0.759669
135.361882,-0.02876,-0.017295,0.003589,-0.068121,0.393276,9.691753,0.011956,-0.005045,-0.650162,0.759685
135.374563,-0.040309,-0.018062,0.002393,-0.068383,0.383397,9.6945,0.011807,-0.005031,-0.650152,0.759696
135.381715,-0.029082,-0.024793,-0.001513,-0.065497,0.398105,9.690202,0.011614,-0.004987,-0.650127,0.75972
135.394537,-0.021519,-0.031229,-0.001155,-0.061762,0.388859,9.687431,0.011437,-0.004995,-0.650117,0.759732
135.401802,-0.031956,-0.028644,0.006794,-0.048157,0.385175,9.703164,0.011263,-0.005042,-0.650118,0.759733
135.414918,-0.042263,-0.023988,0.011773,-0.044536,0.398039,9.717423,0.011057,-0.005047,-0.65008,0.759769
135.42189,-0.033921,-0.024691,0.008497,-0.037956,0.414765,9.727965,0.010825,-0.005001,-0.650025,0.759819
135.434697,-0.021584,-0.030531,0.003729,-0.041234,0.428084,9.73677,0.010615,-0.004978,-0.649981,0.75986
135.441812,-0.031699,-0.035974,0.004761,-0.047711,0.433772,9.744952,0.010424,-0.005008,-0.649962,0.759879
135.454539,-0.059534,-0.038749,0.008923,-0.046698,0.447214,9.75299,0.01018,-0.005026,-0.649931,0.759908
135.461802,-0.073647,-0.039794,0.006176,-0.059847,0.439248,9.750435,0.00983,-0.004977,-0.649888,0.75995
135.474643,-0.059056,-0.040354,0.00114,-0.073057,0.428173,9.735633,0.009432,-0.004894,-0.649875,0.759967
135.481709,-0.046171,-0.044108,0.001717,-0.08436,0.419286,9.714589,0.009083,-0.004856,-0.649857,0.759987
135.494549,-0.061163,-0.044744,0.007716,-0.101662,0.392442,9.702009,0.008771,-0.004867,-0.649835,0.760009
135.501808,-0.079391,-0.04205,0.001584,-0.117709,0.385322,9.681808,0.008413,-0.004844,-0.649809,0.760036
135.514954,-0.07462,-0.040481,-0.012856,-0.124066,0.38083,9.659049,0.008005,-0.004763,-0.649791,0.760056
135.521711,-0.060836,-0.038635,-0.018192,-0.133466,0.378285,9.644766,0.007617,-0.004687,-0.649824,0.760032
135.534614,-0.061176,-0.028322,-0.006863,-0.124098,0.385872,9.644703,0.007283,-0.004639,-0.649875,0.759992
135.541799,-0.072751,-0.013299,0.004979,-0.101783,0.398571,9.661289,0.006978,-0.004549,-0.649894,0.759979
135.554518,-0.072808,-0.002951,-0.00039,-0.090922,0.398397,9.66778,0.006675,-0.004364,-0.649866,0.760007
135.562121,-0.058095,-0.002325,-0.015049,-0.078261,0.395544,9.657207,0.006399,-0.004136,-0.649857,0.760018
135.574564,-0.054792,-0.003437,-0.018487,-0.068465,0.395558,9.646903,0.006171,-0.003941,-0.649918,0.759969
135.581806,-0.071861,-0.000856,-0.003681,-0.049127,0.423139,9.642362,0.00595,-0.003756,-0.64997,0.759927
135.594524,-0.082639,0.001682,0.005283,-0.050126,0.427648,9.641286,0.005681,-0.003515,-0.649971,0.759929
135.601803,-0.067432,-0.001361,-0.000981,-0.059058,0.436348,9.632683,0.005385,-0.00324,-0.649951,0.75995
135.614971,-0.043727,-0.014725,-0.010476,-0.070225,0.446113,9.633518,0.005138,-0.00303,-0.649939,0.759963
135.621805,-0.041947,-0.027437,-0.008352,-0.072709,0.445095,9.64122,0.004938,-0.002943,-0.649959,0.759948
135.634715,-0.05728,-0.029074,-0.002689,-0.072598,0.447809,9.66201,0.004714,-0.002915,-0.649972,0.759938
135.642053,-0.058849,-0.026169,-0.006474,-0.07791,0.4443,9.685821,0.004434,-0.002855,-0.64998,0.759933
135.654527,-0.04058,-0.022776,-0.015246,-0.086642,0.44271,9.706706,0.004158,-0.00278,-0.649989,0.759927
135.661687,-0.030081,-0.017943,-0.016767,-0.086203,0.436081,9.71137,0.003948,-0.002738,-0.65003,0.759894
135.674516,-0.033709,-0.006338,-0.008576,-0.086498,0.424571,9.707575,0.003786,-0.002701,-0.650089,0.759844
135.681802,-0.030577,0.001108,-0.00719,-0.095877,0.423609,9.700589,0.003644,-0.002609,-0.650109,0.759828
135.694511,-0.009264,0.003878,-0.022284,-0.102145,0.424801,9.686795,0.003537,-0.002497,-0.650126,0.759814
135.701799,0.009148,0.003167,-0.038433,-0.080932,0.429853,9.681844,0.003512,-0.002435,-0.650196,0.759754
135.714955,-0.001245,-0.001021,-0.033822,-0.060639,0.442568,9.675197,0.00355,-0.002431,-0.65033,0.759639
135.721708,-0.02012,-0.005271,-0.022233,-0.062483,0.429389,9.659618,0.003544,-0.002415,-0.650442,0.759544
135.734614,-0.012913,-0.01597,-0.020151,-0.077634,0.410007,9.649074,0.003467,-0.002375,-0.650513,0.759483
135.741691,0.008302,-0.037641,-0.02742,-0.092643,0.397795,9.649603,0.003385,-0.002405,-0.6506,0.759409
135.754589,-0.00215,-0.064848,-0.033588,-0.116081,0.382047,9.642296,0.003304,-0.002575,-0.650687,0.759335
135.76168,-0.004408,-0.092382,-0.036811,-0.124468,0.371614,9.652355,0.003113,-0.002832,-0.650798,0.759239
135.774511,0.014377,-0.113816,-0.040447,-0.135156,0.357634,9.662427,0.002833,-0.00319,-0.650944,0.759113
135.781791,0.02482,-0.127603,-0.041001,-0.163637,0.349518,9.682033,0.002546,-0.003683,-0.651082,0.758994
135.794557,0.015107,-0.127889,-0.03525,-0.18002,0.354248,9.703373,0.002252,-0.004254,-0.651221,0.758873
135.801834,0.002915,-0.120447,-0.030335,-0.18988,0.359326,9.713879,0.001921,-0.004797,-0.65134,0.758768
135.814957,0.006457,-0.107971,-0.032119,-0.194523,0.364675,9.726445,0.001566,-0.00527,-0.651466,0.758658
135.821882,0.026418,-0.091869,-0.039534,-0.206825,0.369733,9.710699,0.001261,-0.005702,-0.651575,0.758561
135.834609,0.042964,-0.075929,-0.041298,-0.220467,0.371403,9.690524,0.001075,-0.006131,-0.651709,0.758443
135.841684,0.041366,-0.058554,-0.030674,-0.224579,0.370033,9.67842,0.000997,-0.006548,-0.651862,0.758308
135.85456,0.035187,-0.037603,-0.016945,-0.228655,0.385088,9.657536,0.000975,-0.006898,-0.651961,0.75822
135.8618,0.043295,-0.025831,-0.017606,-0.223593,0.387876,9.653699,0.001003,-0.00716,-0.652012,0.758175
135.874506,0.062014,-0.025395,-0.033172,-0.204445,0.366592,9.650987,0.001102,-0.007407,-0.652064,0.758127
135.88203,0.072012,-0.032851,-0.045044,-0.178703,0.354905,9.655688,0.001281,-0.007718,-0.652192,0.758013
135.894565,0.057532,-0.039979,-0.036494,-0.16543,0.349187,9.662261,0.001483,-0.00809,-0.652336,0.757885
135.901799,0.029744,-0.039846,-0.01852,-0.170673,0.320139,9.670513,0.001612,-0.008444,-0.652452,0.757781
135.914923,0.017415,-0.037494,-0.010479,-0.166009,0.306633,9.680826,0.001641,-0.008714,-0.65252,0.757719
135.921708,0.032345,-0.038281,-0.011429,-0.164214,0.278861,9.689521,0.001629,-0.008934,-0.652544,0.757696
135.934517,0.05578,-0.045145,-0.012186,-0.171568,0.263481,9.696957,0.00166,-0.009196,-0.652571,0.75767
135.941684,0.060999,-0.051713,-0.005375,-0.18863,0.249501,9.708519,0.001745,-0.009547,-0.652623,0.757621
135.955188,0.044277,-0.055553,0.004394,-0.182703,0.271123,9.726384,0.001824,-0.009931,-0.652626,0.757613
135.96181,0.029877,-0.065756,0.004219,-0.173618,0.290741,9.746812,0.001827,-0.010279,-0.652597,0.757634
135.974582,0.039887,-0.083521,-0.000972,-0.16704,0.306008,9.771708,0.001746,-0.010623,-0.652567,0.757654
135.981693,0.066673,-0.107896,-0.001003,-0.178132,0.301358,9.784196,0.001646,-0.011069,-0.652576,0.757641
135.994613,0.080974,-0.134097,0.012434,-0.188151,0.297439,9.810361,0.001565,-0.01169,-0.652558,0.757647
136.001801,0.084414,-0.158204,0.024368,-0.216347,0.283647,9.826534,0.001457,-0.012463,-0.652493,0.757691
136.014918,0.100008,-0.187122,0.020648,-0.224527,0.281549,9.839262,0.00129,-0.013352,-0.652404,0.757753
136.021808,0.131524,-0.215604,0.011408,-0.242882,0.269112,9.828479,0.001097,-0.014406,-0.652305,0.757819
136.034723,0.145264,-0.233556,0.010167,-0.24727,0.29815,9.836753,0.000928,-0.015665,-0.652236,0.757854
136.041693,0.123976,-0.233731,0.023087,-0.246637,0.328263,9.832958,0.00075,-0.017032,-0.652167,0.757884
136.054512,0.090806,-0.217617,0.034237,-0.231676,0.350523,9.833191,0.000496,-0.018337,-0.652082,0.757927
136.061808,0.071915,-0.194559,0.036665,-0.223115,0.357078,9.826402,0.000174,-0.019481,-0.651929,0.75803
136.074598,0.083451,-0.16546,0.033206,-0.217975,0.366855,9.82122,-0.000138,-0.020478,-0.651768,0.758142
136.081686,0.100118,-0.135296,0.030709,-0.207785,0.374514,9.810669,-0.000313,-0.021395,-0.651637,0.758229
136.094536,0.091434,-0.109318,0.032206,-0.208559,0.385179,9.800995,-0.00033,-0.022245,-0.651493,0.758328
136.101809,0.05785,-0.084124,0.03241,-0.216039,0.397477,9.789526,-0.000299,-0.022962,-0.651346,0.758433
136.114894,0.033977,-0.064815,0.027542,-0.220143,0.429019,9.782447,-0.000311,-0.023477,-0.65123,0.758517
136.12184,0.039178,-0.049199,0.023857,-0.215896,0.458673,9.77431,-0.000353,-0.023838,-0.651107,0.758612
136.134538,0.058368,-0.035542,0.023641,-0.200218,0.480361,9.779213,-0.000331,-0.02415,-0.650996,0.758697
136.14182,0.056555,-0.024248,0.024654,-0.201281,0.491467,9.794,-0.000201,-0.024464,-0.650884,0.758783
136.15477,0.034578,-0.012553,0.023505,-0.195728,0.479602,9.804698,-3.5e-05,-0.024736,-0.650798,0.758848
136.161686,0.017538,0.000778,0.017747,-0.17177,0.467165,9.804005,0.000102,-0.024905,-0.650689,0.758936
136.174537,0.025003,0.016613,0.011877,-0.138557,0.451171,9.817744,0.000233,-0.024983,-0.650601,0.759009
136.1817,0.032373,0.031775,0.010464,-0.133048,0.417784,9.826319,0.000442,-0.025027,-0.650562,0.75904
136.194491,0.022651,0.049288,0.018583,-0.128509,0.396315,9.825086,0.000729,-0.025035,-0.650497,0.759095
136.201721,0.008007,0.068875,0.030134,-0.137415,0.379119,9.817378,0.001033,-0.024943,-0.650405,0.759177
136.21497,0.005968,0.080413,0.033425,-0.148026,0.363087,9.806821,0.001334,-0.024725,-0.650276,0.759295
136.221793,0.024392,0.083778,0.026149,-0.153163,0.347598,9.799851,0.001654,-0.024445,-0.65016,0.759402
136.234615,0.037364,0.07934,0.021325,-0.155668,0.350305,9.807023,0.00204,-0.024195,-0.650044,0.759509
136.241883,0.020899,0.072005,0.028073,-0.150751,0.36109,9.81211,0.002449,-0.023991,-0.649942,0.759601
136.25445,0.003386,0.064688,0.036516,-0.160161,0.366039,9.81011,0.002782,-0.023767,-0.64984,0.759694
136.261667,0.016414,0.049056,0.037204,-0.17043,0.369298,9.791527,0.003037,-0.023532,-0.649687,0.759831
136.274541,0.032961,0.026765,0.030887,-0.156361,0.38718,9.772602,0.003294,-0.023404,-0.64953,0.759968
136.282139,0.017735,0.00558,0.026549,-0.145003,0.42182,9.755374,0.003543,-0.023416,-0.649414,0.760067
136.294829,-0.006743,-0.010088,0.020657,-0.143916,0.437189,9.731858,0.003686,-0.023443,-0.649294,0.760167
136.301967,0.0056,-0.020731,0.014229,-0.150438,0.426876,9.697922,0.003704,-0.023466,-0.6492,0.760246
136.31496,0.030249,-0.026681,0.018274,-0.164323,0.407848,9.658534,0.003728,-0.023565,-0.649127,0.760306
136.32166,0.032488,-0.019572,0.029578,-0.176751,0.37452,9.625021,0.003816,-0.023751,-0.64906,0.760357
136.334514,0.027888,-0.007733,0.030102,-0.181254,0.356104,9.593154,0.003932,-0.023917,-0.648933,0.76046
136.341944,0.051674,-0.000502,0.022812,-0.181661,0.354165,9.563019,0.004067,-0.024023,-0.648803,0.760566
136.354521,0.064538,0.0077,0.027668,-0.198783,0.347705,9.535415,0.004298,-0.024158,-0.648706,0.760644
136.361668,0.050576,0.025353,0.038775,-0.20708,0.342625,9.502584,0.004602,-0.024296,-0.648577,0.760747
136.374494,0.035305,0.036317,0.032403,-0.213164,0.344462,9.469766,0.004912,-0.024336,-0.648412,0.760884
136.381803,0.037122,0.04013,0.011579,-0.213103,0.361953,9.434908,0.005213,-0.024298,-0.648295,0.760984
136.394562,0.027622,0.040738,0.008282,-0.209492,0.37863,9.411971,0.005536,-0.024251,-0.648223,0.761044
136.401696,-0.004586,0.048262,0.022939,-0.194306,0.41379,9.398204,0.00583,-0.024169,-0.648164,0.761095
136.414972,-0.024784,0.05579,0.028256,-0.172652,0.456107,9.39262,0.006029,-0.023963,-0.648062,0.761187
136.421803,-0.015579,0.054516,0.018734,-0.154157,0.490427,9.395119,0.006172,-0.023664,-0.647965,0.761278
136.434584,-0.022813,0.051757,0.020861,-0.153869,0.505251,9.399568,0.006327,-0.023377,-0.647876,0.761361
136.441667,-0.030782,0.054235,0.034255,-0.167821,0.506951,9.403135,0.006447,-0.023071,-0.64778,0.761451
136.454531,-0.014688,0.044989,0.031823,-0.171627,0.513342,9.4194,0.006539,-0.022735,-0.647662,0.76156
136.461681,-0.008387,0.024546,0.026704,-0.187387,0.504432,9.429877,0.006653,-0.022478,-0.647528,0.761681
136.474459,-0.021949,0.003769,0.031731,-0.191481,0.503795,9.429071,0.006729,-0.022318,-0.64741,0.761785
136.481804,-0.019616,-0.013811,0.034539,-0.211974,0.501749,9.429971,0.006709,-0.022197,-0.647278,0.761901
136.49452,-0.000853,-0.035858,0.033626,-0.241069,0.491088,9.41623,0.006652,-0.022152,-0.647149,0.762013
136.501658,-0.011033,-0.058796,0.040376,-0.253998,0.486722,9.409426,0.006594,-0.022248,-0.647004,0.762133
136.514954,-0.03578,-0.079436,0.046324,-0.26265,0.489748,9.398505,0.006431,-0.022407,-0.646838,0.762271
136.521701,-0.039156,-0.097091,0.045445,-0.272888,0.498355,9.367892,0.006115,-0.02257,-0.646668,0.762413
136.534462,-0.03401,-0.112403,0.045063,-0.269955,0.489512,9.334525,0.005718,-0.022776,-0.646488,0.762563
136.541659,-0.044018,-0.1153,0.05045,-0.25807,0.495747,9.309628,0.005278,-0.023038,-0.646308,0.762711
136.554448,-0.04707,-0.115482,0.048593,-0.251506,0.50538,9.293667,0.004787,-0.02328,-0.646117,0.762868
136.561637,-0.033814,-0.118251,0.037939,-0.256929,0.513231,9.276343,0.004282,-0.023513,-0.64593,0.763023
136.574405,-0.0338,-0.122365,0.037447,-0.259809,0.501903,9.26337,0.003813,-0.023796,-0.645775,0.763148
136.581685,-0.043914,-0.117728,0.042151,-0.246373,0.492507,9.261951,0.003341,-0.024101,-0.645622,0.763269
136.594477,-0.02863,-0.115437,0.03739,-0.23903,0.486749,9.245074,0.002862,-0.024379,-0.645471,0.76339
136.601606,-0.017149,-0.115116,0.029927,-0.216965,0.465128,9.216288,0.002451,-0.024696,-0.645318,0.763511
136.614951,-0.029955,-0.111903,0.031151,-0.187808,0.456014,9.209729,0.002081,-0.025042,-0.645189,0.763609
136.621801,-0.029983,-0.108297,0.031117,-0.159346,0.468029,9.213895,0.001677,-0.025338,-0.64508,0.763693
136.634562,-0.010719,-0.112181,0.023395,-0.132209,0.478394,9.215521,0.001273,-0.025612,-0.644954,0.763791
136.641666,-0.014967,-0.114286,0.022565,-0.123367,0.477649,9.211083,0.000911,-0.02594,-0.64485,0.763868
136.654434,-0.037542,-0.109324,0.030431,-0.115439,0.474301,9.215995,0.000525,-0.026261,-0.64475,0.763942
136.661661,-0.040999,-0.107467,0.033397,-0.116413,0.459956,9.216482,7.7e-05,-0.026508,-0.64465,0.764018
136.674412,-0.036471,-0.111104,0.028999,-0.129891,0.435998,9.217551,-0.000373,-0.02674,-0.644515,0.764124
136.681795,-0.056241,-0.112362,0.027691,-0.137224,0.430181,9.204781,-0.000822,-0.026991,-0.644394,0.764217
136.694465,-0.065299,-0.107424,0.027274,-0.134826,0.438144,9.189085,-0.001342,-0.027189,-0.644297,0.764291
136.701612,-0.047424,-0.101687,0.023983,-0.156552,0.434529,9.168967,-0.00188,-0.027341,-0.644187,0.764377
136.714824,-0.044027,-0.094265,0.019831,-0.167245,0.422294,9.154531,-0.002348,-0.027512,-0.644086,0.764454
136.721615,-0.044476,-0.084693,0.015498,-0.177957,0.409673,9.132793,-0.002781,-0.027665,-0.644017,0.764505
136.734739,-0.021337,-0.077855,0.011904,-0.176742,0.415258,9.113207,-0.003177,-0.02779,-0.643949,0.764557
136.741582,-0.015023,-0.072816,0.012342,-0.175556,0.425834,9.09921,-0.003472,-0.027956,-0.64389,0.764599
136.754505,-0.024191,-0.063001,0.007018,-0.170912,0.423996,9.08633,-0.00372,-0.028124,-0.643833,0.76464
136.761604,-0.016357,-0.059078,-5.1e-05,-0.167017,0.417626,9.086882,-0.003962,-0.028239,-0.643815,0.764649
136.774487,-0.011567,-0.0558,0.002369,-0.16873,0.435236,9.106819,-0.004163,-0.028356,-0.643801,0.764656
136.781614,-0.028286,-0.052669,0.007948,-0.177484,0.440653,9.134826,-0.00434,-0.028471,-0.643778,0.76467
136.794398,-0.038702,-0.052555,0.004104,-0.186943,0.427316,9.160806,-0.004566,-0.028527,-0.643767,0.764676
136.801654,-0.0278,-0.059503,-0.003648,-0.183286,0.403095,9.189823,-0.004826,-0.028557,-0.643743,0.764693
136.814905,-0.021781,-0.062222,0.002134,-0.176632,0.382868,9.22845,-0.005069,-0.028642,-0.643742,0.76469
136.821701,-0.031105,-0.057609,0.008114,-0.169247,0.364486,9.26782,-0.005294,-0.028761,-0.643721,0.764701
136.834616,-0.043783,-0.056062,-0.002989,-0.167452,0.359484,9.308724,-0.005539,-0.028838,-0.643703,0.764711
136.841735,-0.034847,-0.057183,-0.019195,-0.163235,0.372427,9.345582,-0.005822,-0.028871,-0.643707,0.764705
136.854566,-0.033729,-0.051711,-0.017824,-0.149551,0.383069,9.35967,-0.006084,-0.028919,-0.643766,0.764652
136.861643,-0.051295,-0.038572,-0.009683,-0.13601,0.397399,9.346736,-0.006332,-0.028943,-0.643838,0.764588
136.874511,-0.064282,-0.025341,-0.018332,-0.132511,0.396105,9.313661,-0.0066,-0.028867,-0.643872,0.76456
136.881588,-0.062216,-0.018696,-0.03324,-0.155902,0.392615,9.278802,-0.006891,-0.02873,-0.643937,0.764508
136.894847,-0.064297,-0.015078,-0.029812,-0.165294,0.388223,9.261974,-0.007171,-0.028598,-0.644066,0.764402
136.901716,-0.069612,-0.008346,-0.02403,-0.157704,0.39956,9.256915,-0.00744,-0.028451,-0.644172,0.764315
136.914811,-0.0564,-0.003448,-0.032572,-0.137706,0.405317,9.259729,-0.007704,-0.028267,-0.644261,0.764245
136.921656,-0.047577,-0.000229,-0.037157,-0.112102,0.408457,9.27778,-0.007915,-0.028095,-0.644375,0.764153
136.934418,-0.051097,0.007051,-0.029628,-0.096082,0.407856,9.28779,-0.008091,-0.027928,-0.644519,0.764036
136.94164,-0.050035,0.014093,-0.025319,-0.091856,0.398878,9.2973,-0.008261,-0.027717,-0.644624,0.763953
136.954459,-0.036314,0.019502,-0.032839,-0.092708,0.392486,9.309884,-0.008403,-0.027482,-0.644715,0.763883
136.96167,-0.033623,0.022755,-0.036233,-0.105616,0.384102,9.309079,-0.008478,-0.027271,-0.644846,0.763779
136.974516,-0.038291,0.030442,-0.026862,-0.11149,0.376186,9.325043,-0.008522,-0.027062,-0.64497,0.763681
136.981658,-0.024461,0.032041,-0.020236,-0.120171,0.373957,9.343739,-0.008549,-0.026824,-0.645063,0.763611
136.994486,-0.001183,0.028788,-0.02372,-0.12468,0.374423,9.346722,-0.00852,-0.026626,-0.645131,0.763561
137.001656,0.003643,0.023633,-0.027507,-0.127375,0.363,9.352098,-0.008425,-0.026504,-0.645227,0.763484
137.01495,0.000113,0.02129,-0.022915,-0.12069,0.335692,9.369845,-0.00833,-0.026411,-0.645315,0.763415
137.021884,0.007628,0.019892,-0.017482,-0.098088,0.318763,9.394455,-0.008261,-0.02631,-0.645387,0.763358
137.034634,0.020271,0.013168,-0.019867,-0.081252,0.322353,9.410457,-0.008178,-0.026233,-0.645455,0.763304
137.041693,0.012914,0.00562,-0.02271,-0.063985,0.339135,9.419688,-0.008072,-0.026215,-0.645514,0.763256
137.054506,-0.017468,0.006082,-0.02055,-0.055918,0.361003,9.424328,-0.008012,-0.026204,-0.645583,0.763198
137.06164,-0.043303,0.012181,-0.019306,-0.056527,0.375186,9.444064,-0.00805,-0.026111,-0.645667,0.76313
137.074461,-0.042653,0.015408,-0.024468,-0.062319,0.393092,9.477335,-0.008151,-0.025931,-0.645732,0.76308
137.081708,-0.035237,0.013386,-0.027379,-0.062958,0.411264,9.508517,-0.008206,-0.025719,-0.645815,0.763017
137.094542,-0.042453,0.008985,-0.022576,-0.061165,0.420028,9.552859,-0.008214,-0.025507,-0.645909,0.762944
137.101639,-0.053982,0.006849,-0.01493,-0.064593,0.421623,9.596639,-0.00827,-0.025281,-0.646002,0.762872
137.114894,-0.050821,0.005207,-0.015607,-0.081525,0.421887,9.635891,-0.008385,-0.025018,-0.646056,0.762834
137.121667,-0.030877,0.001169,-0.023088,-0.090397,0.42056,9.670487,-0.008502,-0.024762,-0.646113,0.762793
137.134459,-0.023866,-0.00533,-0.01928,-0.103149,0.411759,9.709402,-0.008567,-0.024577,-0.646205,0.76272
137.141649,-0.033587,-0.00046,-0.011146,-0.103048,0.402797,9.757377,-0.008623,-0.024432,-0.646268,0.76267
137.154525,-0.029947,0.005899,-0.012282,-0.114267,0.391067,9.795062,-0.00869,-0.024254,-0.646304,0.762645
137.161691,-0.006357,0.01098,-0.020119,-0.139699,0.387833,9.819166,-0.008709,-0.024077,-0.646365,0.762598
137.174462,0.015349,0.01523,-0.025958,-0.159782,0.39052,9.840732,-0.008614,-0.023965,-0.646428,0.76255
137.181684,0.008473,0.020946,-0.021657,-0.166793,0.393344,9.849277,-0.008421,-0.02391,-0.646508,0.762486
137.194589,-0.011848,0.034566,-0.016373,-0.154548,0.381121,9.845139,-0.008228,-0.023814,-0.646576,0.762434
137.201654,-0.018881,0.053009,-0.018238,-0.145021,0.358821,9.826083,-0.00807,-0.023604,-0.64664,0.762387
137.214889,-0.00503,0.079008,-0.024179,-0.135449,0.334627,9.799718,-0.007886,-0.023289,-0.646701,0.762347
137.221804,0.011506,0.107923,-0.028141,-0.111117,0.31922,9.78954,-0.007583,-0.022903,-0.646784,0.762291
137.23459,0.002523,0.140344,-0.02387,-0.096534,0.312383,9.791717,-0.007141,-0.022444,-0.646898,0.762213
137.24169,-0.024801,0.181224,-0.013268,-0.078513,0.33307,9.796329,-0.006627,-0.021829,-0.646981,0.762165
137.254495,-0.043638,0.218048,-0.007676,-0.069674,0.334952,9.784258,-0.006078,-0.020983,-0.647028,0.762153
137.261687,-0.041236,0.240815,-0.012275,-0.068111,0.32631,9.783538,-0.00547,-0.019952,-0.647057,0.762161
137.274489,-0.027443,0.249496,-0.02252,-0.057795,0.320765,9.804726,-0.004768,-0.018853,-0.647111,0.762148
137.28164,-0.017913,0.24379,-0.028559,-0.061281,0.315252,9.838164,-0.003975,-0.017773,-0.647188,0.762113
137.294618,-0.027313,0.234684,-0.021693,-0.069118,0.324455,9.871491,-0.003159,-0.016742,-0.647283,0.762059
137.301633,-0.037827,0.228712,-0.011221,-0.081984,0.337635,9.884628,-0.002406,-0.015716,-0.647379,0.762003
137.31489,-0.037303,0.221773,-0.008856,-0.099621,0.345772,9.890681,-0.00172,-0.014672,-0.647414,0.761995
137.321829,-0.020763,0.214262,-0.015874,-0.109795,0.344591,9.903389,-0.001065,-0.013645,-0.647441,0.761993
137.334456,0.004452,0.209345,-0.021863,-0.116012,0.340332,9.916686,-0.000383,-0.012686,-0.647498,0.761962
137.341634,0.014757,0.204186,-0.017037,-0.118225,0.33374,9.927684,0.000365,-0.011817,-0.647565,0.761918
137.354462,0.00928,0.204697,-0.008305,-0.122084,0.337057,9.941748,0.001137,-0.010998,-0.647615,0.761887
137.361799,0.005698,0.206574,-0.004471,-0.12899,0.330359,9.943989,0.001897,-0.010169,-0.647632,0.761883
137.375335,0.015304,0.209141,-0.006441,-0.114407,0.341028,9.92966,0.002662,-0.009333,-0.647654,0.761872
137.381663,0.035571,0.213501,-0.013067,-0.099785,0.367716,9.91694,0.003485,-0.008531,-0.647661,0.761873
137.394492,0.048405,0.220576,-0.013228,-0.089814,0.36158,9.914271,0.004405,-0.007784,-0.647686,0.761855
137.401671,0.040305,0.226263,-0.006127,-0.052601,0.362202,9.921245,0.005397,-0.007055,-0.647733,0.761816
137.414889,0.025259,0.230983,-0.003371,-0.037539,0.355327,9.928593,0.006382,-0.006281,-0.647732,0.761815
137.421811,0.026846,0.233027,-0.006004,-0.039336,0.345137,9.93751,0.007326,-0.005442,-0.647721,0.761823
137.434665,0.049532,0.22751,-0.009746,-0.051377,0.340875,9.953996,0.008275,-0.004595,-0.64772,0.76182
137.441656,0.07061,0.214275,-0.008922,-0.062161,0.327244,9.965001,0.009278,-0.003828,-0.647749,0.761788
137.454475,0.080678,0.197444,-0.001863,-0.065389,0.333782,9.98158,0.010309,-0.003169,-0.647756,0.761771
137.461663,0.086532,0.176615,0.005108,-0.071223,0.347066,9.995037,0.01132,-0.002603,-0.647738,0.761774
137.474467,0.098595,0.152445,0.004371,-0.077764,0.356319,10.008435,0.012289,-0.002137,-0.647701,0.761792
137.481631,0.112045,0.122359,-0.005345,-0.094922,0.357811,10.02378,0.013227,-0.00181,-0.647662,0.76181
137.494432,0.115981,0.094469,-0.011067,-0.122285,0.364337,10.034099,0.014122,-0.001644,-0.647658,0.761799
137.501704,0.093925,0.073079,-0.002446,-0.142462,0.373634,10.024647,0.014942,-0.001597,-0.64768,0.761764
137.514898,0.053989,0.059443,0.014268,-0.140328,0.395475,10.025023,0.015614,-0.001566,-0.647664,0.761764
137.52164,0.02661,0.052627,0.026824,-0.155185,0.399777,10.028367,0.016102,-0.001469,-0.647588,0.761819
137.53447,0.023134,0.049848,0.026129,-0.171722,0.388231,10.032305,0.016466,-0.001314,-0.647467,0.761914
137.541665,0.038159,0.044707,0.013987,-0.17047,0.389011,10.034623,0.016806,-0.001162,-0.647362,0.761997
137.55448,0.054351,0.03765,0.000785,-0.156976,0.412996,10.033394,0.017182,-0.00107,-0.647288,0.762051
137.561628,0.051464,0.033498,0.001284,-0.148486,0.412991,10.029344,0.017593,-0.001052,-0.647262,0.762064
137.57446,0.026275,0.034087,0.014481,-0.147555,0.394278,10.022884,0.017978,-0.001036,-0.647244,0.76207
137.581632,0.007133,0.030828,0.029604,-0.138956,0.392579,10.021221,0.018274,-0.000944,-0.64717,0.762126
137.594459,0.011968,0.022,0.035236,-0.117647,0.399587,10.020789,0.018489,-0.000806,-0.647043,0.762229
137.601679,0.032594,0.006432,0.032814,-0.099004,0.401701,10.010595,0.018689,-0.000714,-0.646893,0.762351
137.614908,0.042777,-0.010907,0.025817,-0.084274,0.392664,9.995971,0.018909,-0.000739,-0.646751,0.762467
137.6218,0.02708,-0.024012,0.02383,-0.072765,0.387953,9.988331,0.019108,-0.000857,-0.646636,0.762559
137.634641,0.005637,-0.029549,0.024929,-0.06436,0.386678,9.995903,0.019211,-0.000979,-0.64653,0.762646
137.641656,-0.00165,-0.032904,0.022966,-0.061987,0.376013,10.01544,0.019221,-0.001064,-0.646439,0.762723
137.654441,0.009768,-0.037598,0.017296,-0.066304,0.365142,10.030755,0.019194,-0.001142,-0.646338,0.762809
137.661606,0.020424,-0.042797,0.013548,-0.066074,0.349162,10.036803,0.019193,-0.001272,-0.646258,0.762877
137.674513,0.00684,-0.04533,0.017948,-0.059644,0.360125,10.059684,0.019212,-0.001451,-0.646199,0.762926
137.681717,-0.019455,-0.047509,0.027472,-0.051517,0.349272,10.07381,0.019161,-0.001611,-0.646117,0.762996
137.694427,-0.027767,-0.048774,0.035536,-0.043218,0.35408,10.08701,0.018998,-0.001709,-0.646002,0.763098
137.701769,-0.009097,-0.049433,0.035398,-0.03942,0.350659,10.099269,0.018799,-0.001783,-0.645858,0.763224
137.714893,0.021827,-0.049942,0.026599,-0.048324,0.328242,10.099265,0.018661,-0.001913,-0.645731,0.763335
137.721606,0.045934,-0.048016,0.01766,-0.037934,0.322188,10.121124,0.018634,-0.002136,-0.645618,0.76343
137.734433,0.049194,-0.04732,0.010318,-0.037333,0.310213,10.142526,0.018701,-0.002428,-0.645539,0.763494
137.741667,0.022162,-0.044958,0.008638,-0.03754,0.329531,10.163237,0.018782,-0.002725,-0.645488,0.763535
137.754454,-0.016015,-0.04384,0.010159,-0.033456,0.351794,10.185356,0.018777,-0.002938,-0.645442,0.763573
137.761615,-0.045921,-0.043286,0.008294,-0.035039,0.338657,10.204445,0.018641,-0.003032,-0.645392,0.763618
137.774962,-0.054622,-0.047877,0.000797,-0.02788,0.338459,10.226649,0.018398,-0.003037,-0.645349,0.76366
137.781673,-0.042025,-0.054866,-0.007186,-0.021378,0.319937,10.238868,0.018109,-0.003033,-0.645333,0.763681
137.794421,-0.026125,-0.062297,-0.012982,-0.007837,0.31269,10.266113,0.017843,-0.003092,-0.645348,0.763674
137.801673,-0.022828,-0.072723,-0.01063,-0.01223,0.305222,10.294155,0.017608,-0.003227,-0.645384,0.763648
137.814913,-0.035395,-0.078431,-0.003319,-0.02825,0.307633,10.327395,0.017349,-0.003405,-0.645415,0.763627
137.821682,-0.035315,-0.079765,-0.001223,-0.033086,0.30641,10.358014,0.01703,-0.003571,-0.64542,0.763629
137.834503,-0.016393,-0.081255,-0.011878,-0.040957,0.295263,10.375013,0.016704,-0.003739,-0.645421,0.763636
137.841557,0.010782,-0.076369,-0.026305,-0.045023,0.304538,10.387981,0.016442,-0.003964,-0.645458,0.763609
137.854432,0.0224,-0.064488,-0.035793,-0.047971,0.312609,10.39013,0.016289,-0.004249,-0.645549,0.763533
137.86155,0.005189,-0.047883,-0.037026,-0.046714,0.315916,10.383333,0.01621,-0.004518,-0.645674,0.763427
137.874439,-0.019151,-0.02827,-0.030847,-0.041733,0.318152,10.362319,0.016122,-0.004672,-0.645803,0.76332
137.881579,-0.027353,-0.010185,-0.025166,-0.0189,0.326296,10.335567,0.015989,-0.004691,-0.645912,0.76323
137.894408,-0.007407,0.003249,-0.022303,-0.012184,0.335867,10.315165,0.015867,-0.004635,-0.645994,0.763164
137.901556,0.029369,0.013403,-0.024526,-0.024645,0.327305,10.296699,0.015863,-0.004591,-0.646064,0.763105
137.91481,0.057237,0.017119,-0.027676,-0.037043,0.327552,10.266627,0.016026,-0.004626,-0.646142,0.763035
137.92165,0.057338,0.018089,-0.029155,-0.053751,0.324583,10.237423,0.016309,-0.004736,-0.646227,0.762956
137.934424,0.037091,0.019284,-0.030931,-0.06413,0.334891,10.201085,0.016605,-0.004849,-0.646318,0.762872
137.941674,0.021079,0.016028,-0.035954,-0.055185,0.363117,10.17438,0.016838,-0.004902,-0.646423,0.762778
137.954472,0.021931,0.009561,-0.038213,-0.051042,0.388331,10.155565,0.017007,-0.004921,-0.646541,0.762674
137.961638,0.025826,0.000528,-0.030241,-0.054401,0.386613,10.140253,0.017156,-0.004962,-0.646666,0.762564
137.974387,0.015865,-0.011148,-0.018102,-0.06885,0.37913,10.121326,0.017282,-0.005043,-0.646765,0.762477
137.981624,-0.0048,-0.018115,-0.007609,-0.079364,0.358057,10.109173,0.01733,-0.00513,-0.646825,0.762424
137.994467,-0.014761,-0.02548,-0.010203,-0.082662,0.350285,10.128093,0.017275,-0.005181,-0.646845,0.762408
138.001625,-0.004603,-0.033682,-0.019457,-0.080724,0.337656,10.149095,0.017158,-0.005225,-0.646873,0.762386
138.014893,0.016045,-0.040026,-0.026707,-0.095174,0.307582,10.170216,0.01705,-0.00533,-0.646933,0.762338
138.021811,0.028743,-0.043196,-0.0239,-0.092527,0.295854,10.191855,0.016996,-0.005524,-0.64702,0.762264
138.03457,0.024308,-0.042293,-0.016369,-0.092116,0.289011,10.209072,0.016981,-0.005772,-0.647096,0.762198
138.041631,0.00903,-0.040007,-0.015,-0.097417,0.28307,10.210782,0.016954,-0.006009,-0.647146,0.762154
138.054417,-0.000175,-0.036048,-0.02262,-0.108264,0.287986,10.211667,0.016887,-0.006197,-0.647193,0.762114
138.061648,0.001131,-0.032574,-0.030132,-0.109576,0.282657,10.196997,0.0168,-0.006344,-0.647266,0.762053
138.074511,0.006185,-0.029674,-0.028585,-0.120979,0.27315,10.177515,0.016731,-0.00648,-0.647364,0.761969
138.081606,0.002512,-0.028019,-0.018252,-0.128817,0.256404,10.148487,0.016673,-0.006621,-0.647463,0.761886
138.094483,-0.004862,-0.022481,-0.011117,-0.120794,0.265119,10.115635,0.016596,-0.006744,-0.64752,0.761838
138.101639,-0.010938,-0.019247,-0.018913,-0.0994,0.289828,10.094197,0.016503,-0.006819,-0.647553,0.761811
138.114886,-0.005959,-0.016508,-0.036469,-0.095426,0.304654,10.077126,0.016396,-0.006857,-0.647616,0.76176
138.121616,0.002875,-0.015653,-0.043261,-0.117419,0.316103,10.064355,0.016312,-0.006896,-0.647739,0.761657
138.134515,-0.000334,-0.013288,-0.031739,-0.137685,0.31687,10.045865,0.016262,-0.006957,-0.647885,0.761533
138.141688,-0.008203,-0.004974,-0.014403,-0.158496,0.324383,10.023754,0.016215,-0.007005,-0.64799,0.761444
138.154404,-0.004648,0.001525,-0.011281,-0.169208,0.344236,9.992638,0.016173,-0.007011,-0.648029,0.761412
138.161637,0.015143,0.000361,-0.027406,-0.176255,0.324768,9.967787,0.016173,-0.007015,-0.64806,0.761385
138.174411,0.035043,-0.00274,-0.040498,-0.18939,0.29948,9.954225,0.016248,-0.007087,-0.648146,0.76131
138.181612,0.035817,-0.00499,-0.036127,-0.183708,0.319435,9.944259,0.016384,-0.007229,-0.648274,0.761197
138.194435,0.021177,-0.000756,-0.01757,-0.180196,0.335575,9.936238,0.016514,-0.007379,-0.64839,0.761094
138.201806,0.015343,0.011309,-0.004416,-0.179812,0.342299,9.930244,0.016602,-0.007465,-0.648441,0.761047
138.214818,0.027322,0.019523,-0.007185,-0.177116,0.347608,9.928799,0.016698,-0.007483,-0.648445,0.761042
138.221718,0.051777,0.021991,-0.019101,-0.18403,0.352979,9.943095,0.016859,-0.0075,-0.648466,0.76102
138.234564,0.062016,0.019579,-0.025784,-0.187248,0.373734,9.971364,0.017109,-0.007575,-0.64852,0.760968
138.24171,0.04907,0.019866,-0.019935,-0.184369,0.385842,9.995458,0.01739,-0.007689,-0.648595,0.760896
138.254428,0.025593,0.024689,-0.008304,-0.18145,0.383653,10.015888,0.017632,-0.007767,-0.648655,0.760838
138.261641,0.012842,0.026348,-0.002353,-0.172398,0.391943,10.042329,0.017814,-0.007768,-0.64867,0.760822
138.27442,0.020639,0.021798,-0.001553,-0.171377,0.382225,10.069065,0.017963,-0.007735,-0.64866,0.760827
138.282018,0.034716,0.013359,-0.006478,-0.185051,0.374818,10.080944,0.018131,-0.007748,-0.648647,0.760834
138.294416,0.03246,0.004292,-0.010257,-0.187435,0.380423,10.085447,0.018322,-0.007833,-0.648651,0.760825
138.30163,0.009113,-0.000511,-0.006863,-0.188661,0.387391,10.091162,0.018476,-0.007943,-0.648668,0.760805
138.315083,-0.014429,-0.001918,-0.00357,-0.198834,0.378385,10.084526,0.018527,-0.007997,-0.648677,0.760796
138.321578,-0.018108,-0.004299,-0.004668,-0.201965,0.373679,10.074868,0.018479,-0.007978,-0.648673,0.760801
138.334463,-0.000466,-0.007,-0.007713,-0.202366,0.365965,10.059133,0.018401,-0.007945,-0.648677,0.7608
138.341628,0.013862,-0.011454,-0.006017,-0.201601,0.354549,10.043054,0.018365,-0.007965,-0.648691,0.760788
138.35441,0.005973,-0.008819,0.001085,-0.184304,0.349445,10.032724,0.018357,-0.008034,-0.648697,0.760783
138.361592,-0.014213,0.00103,0.003145,-0.176133,0.364574,10.019671,0.018329,-0.008067,-0.648681,0.760797
138.374464,-0.022554,0.007294,-0.002319,-0.155267,0.370163,10.015887,0.01826,-0.008007,-0.648656,0.76082
138.38161,-0.008414,0.010594,-0.010259,-0.148509,0.357355,10.00753,0.01819,-0.007905,-0.64865,0.760829
138.394412,0.010765,0.013573,-0.013663,-0.165866,0.345951,10.004034,0.018191,-0.007841,-0.648666,0.760815
138.401605,0.008221,0.013691,-0.008831,-0.175931,0.357527,10.011598,0.018277,-0.007832,-0.648697,0.760787
138.414929,-0.012355,0.010961,-0.003252,-0.178976,0.369476,10.018036,0.018363,-0.007825,-0.64871,0.760774
138.421685,-0.019816,0.006533,-0.003855,-0.177514,0.357919,10.029793,0.018376,-0.007774,-0.648713,0.760772
138.434528,-0.007168,-0.000791,-0.00936,-0.161871,0.360892,10.059413,0.018346,-0.007715,-0.648711,0.760775
138.441898,0.014215,-0.008966,-0.014706,-0.147414,0.360261,10.070587,0.018334,-0.007719,-0.64873,0.760759
138.454426,0.020558,-0.014881,-0.014142,-0.143033,0.35342,10.066928,0.018362,-0.007807,-0.648778,0.760716
138.461685,0.009755,-0.015364,-0.009894,-0.131521,0.361468,10.066777,0.018387,-0.007926,-0.648816,0.760682
138.474412,-0.001753,-0.01472,-0.013302,-0.126938,0.359205,10.064746,0.018364,-0.00801,-0.648842,0.760659
138.481653,-0.003708,-0.014335,-0.023227,-0.129396,0.345361,10.079282,0.018297,-0.008044,-0.648882,0.760627
138.494424,0.006379,-0.00945,-0.032713,-0.132476,0.348534,10.087308,0.018228,-0.008059,-0.648972,0.760551
138.501582,0.007551,-0.005399,-0.029299,-0.129623,0.363675,10.087937,0.01821,-0.008088,-0.649078,0.760461
138.514897,-0.006089,-0.000643,-0.023355,-0.130393,0.349236,10.092228,0.018212,-0.008107,-0.649174,0.760379
138.521618,-0.007764,-0.001081,-0.033103,-0.142651,0.345138,10.097902,0.018189,-0.008079,-0.649246,0.760318
138.534407,0.001292,-0.002423,-0.050304,-0.142081,0.369287,10.084991,0.018168,-0.008053,-0.649356,0.760225
138.543683,0.003305,-0.005487,-0.056308,-0.145008,0.366725,10.05598,0.018179,-0.008064,-0.649526,0.760079
138.554483,-0.013087,-0.005164,-0.046959,-0.155178,0.346431,10.025407,0.01819,-0.008092,-0.649718,0.759915
138.561598,-0.029939,-0.00223,-0.039579,-0.164653,0.330134,9.986584,0.018142,-0.00807,-0.649884,0.759774
138.574674,-0.023207,0.000113,-0.046554,-0.17657,0.306586,9.944105,0.01804,-0.007983,-0.650022,0.759659
138.581742,0.006325,-0.004029,-0.061364,-0.190522,0.303348,9.901351,0.017963,-0.0079,-0.650186,0.759522
138.594519,0.025681,-0.007904,-0.064325,-0.203969,0.316349,9.859824,0.017967,-0.007909,-0.650405,0.759334
138.601583,0.020483,-0.003062,-0.05369,-0.200682,0.333898,9.836732,0.018023,-0.007981,-0.650631,0.759138
138.61481,0.013375,0.007652,-0.045771,-0.215153,0.345335,9.83038,0.018074,-0.008018,-0.65082,0.758975
138.621732,0.027718,0.01479,-0.050901,-0.235673,0.351864,9.819902,0.018136,-0.008001,-0.650987,0.75883
138.634485,0.048145,0.015652,-0.058127,-0.243544,0.352848,9.811598,0.018277,-0.008007,-0.651163,0.758676
138.641588,0.044382,0.01534,-0.055978,-0.242239,0.355715,9.806174,0.0185,-0.008077,-0.65136,0.7585
138.654503,0.019342,0.019964,-0.049005,-0.248366,0.34603,9.802894,0.01872,-0.008146,-0.65155,0.758331
138.661614,0.00488,0.021821,-0.049148,-0.253668,0.333649,9.79872,0.018875,-0.008136,-0.651723,0.758179
138.674392,0.012179,0.020655,-0.056072,-0.25131,0.342995,9.80393,0.018988,-0.008078,-0.651891,0.758031
138.681986,0.029365,0.018196,-0.060639,-0.256249,0.353011,9.807283,0.019123,-0.008043,-0.652085,0.757862
138.694453,0.02794,0.01227,-0.054081,-0.262694,0.352164,9.830022,0.019307,-0.008055,-0.652297,0.757674
138.701602,0.006196,0.011067,-0.045375,-0.2724,0.363839,9.851113,0.019459,-0.008074,-0.652485,0.757508
138.714802,-0.019925,0.011703,-0.047592,-0.269962,0.379307,9.847914,0.01952,-0.008022,-0.652646,0.757369
138.721652,-0.023519,0.008218,-0.054707,-0.273447,0.39517,9.842023,0.019485,-0.007884,-0.652816,0.757225
138.734411,-0.015701,0.00513,-0.056787,-0.287695,0.393807,9.837524,0.019421,-0.00774,-0.653008,0.757062
138.741561,-0.015363,0.004615,-0.046546,-0.2951,0.381882,9.831768,0.019377,-0.007634,-0.653206,0.756894
138.754483,-0.028831,0.010205,-0.030148,-0.290429,0.388832,9.853717,0.019339,-0.007538,-0.653365,0.756759
138.761641,-0.047496,0.014312,-0.025729,-0.291619,0.379024,9.867856,0.019277,-0.007394,-0.653473,0.756668
138.774388,-0.059053,0.013159,-0.036688,-0.295805,0.377894,9.874519,0.019168,-0.007185,-0.653558,0.7566
138.781595,-0.057035,0.011341,-0.047731,-0.302506,0.363491,9.873383,0.019018,-0.006947,-0.653679,0.756501
138.794449,-0.052281,0.010934,-0.046588,-0.308073,0.34583,9.860984,0.018869,-0.006719,-0.653837,0.75637
138.801626,-0.059174,0.011478,-0.033229,-0.304287,0.337695,9.854313,0.018727,-0.0065,-0.653995,0.75624
138.814843,-0.068458,0.016074,-0.021647,-0.299797,0.326325,9.86754,0.01856,-0.00625,-0.654105,0.75615
138.821711,-0.068249,0.010475,-0.024857,-0.29056,0.343284,9.874937,0.018367,-0.005954,-0.654175,0.756097
138.834575,-0.054239,0.002162,-0.036348,-0.275265,0.353042,9.888763,0.018154,-0.005672,-0.654266,0.756026
138.841559,-0.044869,-0.005731,-0.040659,-0.269102,0.339933,9.913206,0.017957,-0.005456,-0.654387,0.755927
138.854489,-0.053258,-0.010535,-0.033894,-0.254475,0.342226,9.944572,0.017765,-0.005293,-0.654525,0.755813
138.86215,-0.078207,-0.009056,-0.021407,-0.251831,0.353528,9.976284,0.017526,-0.00512,-0.654639,0.755721
138.874402,-0.105233,-0.008082,-0.012584,-0.268908,0.352516,9.996132,0.017199,-0.004869,-0.654709,0.75567
138.88159,-0.11377,-0.008134,-0.009733,-0.269189,0.364009,10.023077,0.016775,-0.004531,-0.654745,0.75565
138.894398,-0.098468,-0.007228,-0.010002,-0.282112,0.361549,10.032989,0.016319,-0.004168,-0.654768,0.755642
138.901611,-0.063897,-0.006835,-0.012375,-0.296483,0.364967,10.034148,0.015925,-0.003853,-0.654794,0.75563
138.914812,-0.03783,-0.011202,-0.013787,-0.306024,0.370591,10.019679,0.015656,-0.003647,-0.654826,0.755609
138.921632,-0.039576,-0.013157,-0.011377,-0.299979,0.370613,10.002766,0.015472,-0.003539,-0.654862,0.755582
138.934426,-0.05549,-0.007633,-0.007242,-0.281886,0.383986,9.999723,0.015284,-0.003439,-0.654886,0.755565
138.941612,-0.057793,0.000108,-0.006508,-0.278068,0.380655,9.994835,0.015065,-0.003279,-0.654899,0.755559
138.954382,-0.037317,0.004492,-0.012036,-0.270428,0.381221,9.986383,0.014867,-0.003089,-0.654909,0.755555
138.961565,-0.010693,0.004575,-0.018545,-0.267636,0.377431,9.981285,0.014756,-0.002946,-0.654948,0.755525
138.974435,0.000365,-0.00157,-0.017188,-0.264318,0.372416,9.977572,0.014737,-0.002884,-0.655,0.75548
138.981647,-0.006953,-0.005315,-0.005738,-0.246518,0.384101,9.973307,0.014738,-0.002872,-0.655047,0.755439
138.994409,-0.020077,-0.009582,-0.002962,-0.22894,0.380559,9.965019,0.014693,-0.002848,-0.655058,0.755431
139.001616,-0.02255,-0.017371,-0.01384,-0.208421,0.381174,9.958379,0.014585,-0.002796,-0.655062,0.755429
139.014928,-0.013612,-0.026324,-0.023388,-0.204207,0.368659,9.943843,0.014442,-0.002761,-0.655102,0.755397
139.021696,-0.013994,-0.032924,-0.016694,-0.206757,0.356357,9.931051,0.014299,-0.002782,-0.655175,0.755337
139.034505,-0.024537,-0.026858,0.002312,-0.212106,0.343742,9.916094,0.014141,-0.002829,-0.655234,0.755288
139.041611,-0.032261,-0.014727,0.015919,-0.218521,0.357381,9.898547,0.013969,-0.00283,-0.655215,0.755308
139.054385,-0.029405,-0.006651,0.012857,-0.23029,0.353841,9.879692,0.013812,-0.002772,-0.655145,0.755372
139.061562,-0.014891,-0.004712,-0.000905,-0.221026,0.375399,9.871214,0.013695,-0.002699,-0.655085,0.755426
139.074406,-0.00333,-0.003329,-0.007489,-0.220902,0.371596,9.861192,0.013637,-0.002662,-0.65507,0.755441
139.081586,-0.013548,-0.002327,-0.003894,-0.216864,0.379134,9.857776,0.013627,-0.00265,-0.655079,0.755433
139.094482,-0.042277,-0.000816,0.005551,-0.205245,0.390775,9.871789,0.013586,-0.002598,-0.655075,0.755437
139.10156,-0.065533,0.002407,0.011187,-0.196996,0.380126,9.87216,0.013447,-0.002451,-0.655046,0.755466
139.114933,-0.06478,0.00155,0.011756,-0.200446,0.370573,9.876765,0.013233,-0.002219,-0.654988,0.75552
139.121571,-0.038183,0.000347,0.008582,-0.1924,0.375244,9.88988,0.01302,-0.001989,-0.654928,0.755576
139.134376,-0.008163,-0.002634,0.00496,-0.197101,0.368457,9.906429,0.012898,-0.001845,-0.654882,0.755618
139.141585,0.000185,-0.008131,0.007451,-0.198942,0.374503,9.922085,0.012872,-0.001804,-0.654847,0.75565
139.154418,-0.013961,-0.014474,0.015259,-0.206308,0.37498,9.926713,0.012857,-0.001809,-0.654803,0.755688
139.161585,-0.030027,-0.014071,0.021019,-0.209008,0.37706,9.936624,0.012769,-0.00179,-0.654732,0.755751
139.174374,-0.026928,-0.010425,0.020659,-0.224216,0.363781,9.941139,0.012621,-0.001717,-0.65464,0.755833
139.18163,-0.011989,-0.010104,0.017786,-0.209482,0.378445,9.963551,0.012489,-0.001636,-0.65455,0.755914
139.194477,-0.006176,-0.004064,0.02901,-0.199937,0.375327,9.968512,0.012408,-0.001593,-0.654464,0.75599
139.201553,-0.001295,0.007628,0.041942,-0.20314,0.389365,9.969633,0.012372,-0.001549,-0.654338,0.7561
139.214898,0.012101,0.010504,0.037363,-0.189549,0.388698,9.954282,0.012394,-0.001487,-0.654168,0.756246
139.221695,0.033339,0.00878,0.019094,-0.173644,0.370473,9.934061,0.012482,-0.001463,-0.654014,0.756378
139.234492,0.045058,0.005218,0.007163,-0.150957,0.357703,9.904446,0.012646,-0.001517,-0.653927,0.75645
139.24163,0.03358,0.00359,0.01599,-0.135014,0.369119,9.886546,0.012844,-0.001621,-0.653878,0.756489
139.254799,0.011292,0.003562,0.030561,-0.14003,0.36469,9.851985,0.012998,-0.001701,-0.653799,0.756555
139.261611,0.002367,0.002049,0.032066,-0.147009,0.341821,9.822774,0.013075,-0.001716,-0.653671,0.756664
139.274756,0.018312,-0.004358,0.024424,-0.137165,0.337233,9.810881,0.013116,-0.00171,-0.653538,0.756778
139.281588,0.038957,-0.014689,0.019205,-0.131331,0.329504,9.79512,0.013195,-0.001777,-0.65343,0.75687
139.294433,0.03195,-0.020742,0.024322,-0.13182,0.315119,9.781891,0.013313,-0.001941,-0.65334,0.756945
139.301549,0.005435,-0.019715,0.032226,-0.137977,0.303432,9.781346,0.013387,-0.002105,-0.653237,0.757033
139.314814,-0.015888,-0.018025,0.034826,-0.143256,0.305293,9.784754,0.013366,-0.002182,-0.653103,0.757148
139.321575,-0.01045,-0.016805,0.034024,-0.131478,0.309986,9.788605,0.013271,-0.002185,-0.65296,0.757273
139.33438,0.014258,-0.017278,0.034615,-0.121378,0.32979,9.78986,0.013196,-0.002197,-0.652817,0.757397
139.342455,0.031356,-0.017775,0.035731,-0.123297,0.338429,9.767951,0.013205,-0.002285,-0.652678,0.757517
139.354398,0.023742,-0.017217,0.035883,-0.128616,0.332889,9.740338,0.013274,-0.002428,-0.652529,0.757644
139.361649,0.00679,-0.015843,0.031047,-0.133542,0.342243,9.71515,0.013323,-0.002552,-0.652379,0.757771
139.374406,0.003704,-0.015546,0.023256,-0.126372,0.360652,9.702955,0.013326,-0.002627,-0.652257,0.757876
139.381561,0.015844,-0.016846,0.021839,-0.125645,0.367323,9.688502,0.013326,-0.002699,-0.652151,0.757968
139.394417,0.019476,-0.015418,0.027027,-0.130877,0.379219,9.670384,0.013366,-0.002813,-0.652049,0.758054
139.40157,0.009998,-0.009759,0.036312,-0.124588,0.403241,9.667272,0.013427,-0.002935,-0.651944,0.758142
139.414811,-0.002224,-0.002279,0.040575,-0.137776,0.412176,9.663094,0.013471,-0.003006,-0.65179,0.758274
139.421712,-0.001059,0.000817,0.037248,-0.148866,0.394169,9.652138,0.013487,-0.003007,-0.651622,0.758418
139.434598,0.016059,0.002048,0.033681,-0.153647,0.39281,9.650874,0.013509,-0.002989,-0.651466,0.758552
139.441563,0.028073,0.001496,0.035077,-0.166314,0.396332,9.651912,0.013584,-0.003006,-0.651327,0.758669
139.454362,0.024944,0.003887,0.041893,-0.182535,0.383191,9.664062,0.013692,-0.003051,-0.651178,0.758795
139.461571,0.022267,0.005576,0.045564,-0.191439,0.378027,9.686708,0.013797,-0.00308,-0.651005,0.758942
139.474363,0.031572,0.004396,0.040743,-0.192959,0.369916,9.699885,0.013904,-0.0031,-0.650819,0.759099
139.48155,0.044326,0.003619,0.029944,-0.194855,0.360182,9.699163,0.014052,-0.003168,-0.650649,0.759242
139.49441,0.042258,0.003461,0.023725,-0.197734,0.340894,9.670249,0.014252,-0.003292,-0.650517,0.759351
139.50166,0.021588,0.006491,0.031133,-0.202013,0.333206,9.643299,0.014452,-0.003418,-0.650404,0.759443
139.514811,0.002271,0.010051,0.038347,-0.206325,0.332115,9.62118,0.014591,-0.003474,-0.650272,0.759553
139.521533,0.005813,0.010704,0.037698,-0.203116,0.338001,9.61049,0.014672,-0.003462,-0.650111,0.75969
139.534517,0.015073,0.00543,0.030238,-0.192801,0.358323,9.602264,0.014759,-0.003452,-0.649953,0.759823
139.541565,0.004285,0.002569,0.027113,-0.184464,0.365491,9.61534,0.014856,-0.003475,-0.649823,0.759932
139.554395,-0.022595,0.001328,0.031256,-0.181119,0.358787,9.627484,0.014896,-0.003469,-0.649704,0.760033
139.561564,-0.041566,0.00151,0.036113,-0.183599,0.363702,9.64859,0.014832,-0.003378,-0.649572,0.760148
139.574365,-0.035308,0.003173,0.037577,-0.189271,0.366311,9.663813,0.014701,-0.003227,-0.649429,0.760274
139.581546,-0.014725,0.001084,0.034639,-0.193523,0.355897,9.697312,0.014598,-0.003093,-0.649273,0.760409
139.594368,-0.008765,-0.003374,0.031564,-0.202938,0.345214,9.728805,0.014563,-0.003032,-0.649125,0.760536
139.601622,-0.02651,-0.004635,0.029127,-0.202213,0.357311,9.76038,0.014541,-0.00301,-0.648989,0.760653
139.614808,-0.037464,-0.002938,0.027358,-0.20232,0.352408,9.781409,0.01446,-0.002949,-0.648863,0.760762
139.621639,-0.023255,-0.000272,0.024832,-0.20366,0.354789,9.781788,0.014351,-0.002855,-0.648743,0.760867
139.634585,0.001445,0.003593,0.022931,-0.184598,0.372991,9.785452,0.014301,-0.002795,-0.648631,0.760963
139.642177,0.012299,0.006014,0.024843,-0.171115,0.388749,9.78458,0.014349,-0.002793,-0.648522,0.761055
139.654837,0.004522,0.007058,0.025951,-0.162571,0.391162,9.799195,0.014444,-0.002813,-0.648411,0.761148
139.661566,-0.003926,0.005405,0.020157,-0.157403,0.400393,9.829324,0.014515,-0.002804,-0.648297,0.761244
139.674378,0.002581,0.004627,0.013686,-0.156122,0.398807,9.852328,0.01455,-0.002771,-0.648202,0.761324
139.681542,0.01345,0.00208,0.014234,-0.161789,0.400491,9.864407,0.014596,-0.002757,-0.648132,0.761383
139.694357,0.008509,0.00512,0.021845,-0.17122,0.400948,9.866138,0.014666,-0.00278,-0.64806,0.761443
139.701667,-0.006196,0.011042,0.02902,-0.175664,0.395773,9.875815,0.014727,-0.002779,-0.647961,0.761526
139.714807,-0.013457,0.014764,0.026669,-0.171595,0.377432,9.876318,0.014753,-0.002715,-0.647836,0.761632
139.722254,-0.004406,0.01393,0.02009,-0.162509,0.358292,9.871282,0.014765,-0.002616,-0.647718,0.761732
139.734334,0.008248,0.008896,0.015623,-0.131182,0.367374,9.877968,0.014808,-0.002549,-0.647624,0.761812
139.741568,0.005416,0.004281,0.020383,-0.120962,0.363315,9.877601,0.014881,-0.002541,-0.647541,0.761881
139.754372,-0.010381,0.006528,0.029119,-0.114855,0.363487,9.871595,0.014934,-0.002544,-0.647445,0.761962
139.761621,-0.019479,0.011444,0.031128,-0.107743,0.368318,9.884895,0.014941,-0.002496,-0.647317,0.76207
139.774402,-0.008278,0.014819,0.02438,-0.112181,0.358437,9.891137,0.014932,-0.002405,-0.647183,0.762185
139.781564,0.013325,0.012262,0.017422,-0.118048,0.357748,9.896136,0.014973,-0.002334,-0.647067,0.762283
139.794346,0.019083,0.002886,0.018549,-0.121744,0.346849,9.894334,0.015079,-0.002332,-0.64698,0.762354
139.801545,0.005261,-0.00284,0.023233,-0.122021,0.347642,9.88834,0.015174,-0.002376,-0.646892,0.762427
139.814901,-0.006231,-0.006612,0.024235,-0.124392,0.351256,9.881009,0.0152,-0.002399,-0.646794,0.76251
139.821642,-0.002463,-0.014035,0.016824,-0.132009,0.345112,9.884366,0.015165,-0.002398,-0.646689,0.762599
139.834463,0.01249,-0.020422,0.008646,-0.139113,0.332569,9.881012,0.01512,-0.002433,-0.646612,0.762666
139.841787,0.016916,-0.026826,0.009262,-0.150741,0.310611,9.860419,0.015103,-0.002535,-0.646566,0.762704
139.854367,0.003612,-0.02995,0.015358,-0.156733,0.302523,9.860054,0.015081,-0.002675,-0.646517,0.762746
139.861533,-0.008798,-0.031461,0.014602,-0.156265,0.313154,9.867709,0.015006,-0.002793,-0.646447,0.762806
139.87442,-0.002033,-0.033408,0.007203,-0.151309,0.332508,9.872205,0.01489,-0.002887,-0.64638,0.762865
139.882618,-0.001143,-0.035483,0.006096,-0.143541,0.350286,9.878874,0.01479,-0.003007,-0.646327,0.762912
139.894425,-0.00713,-0.029615,0.01327,-0.128635,0.356507,9.888831,0.014696,-0.003139,-0.646286,0.762947
139.901536,-0.006228,-0.026353,0.013144,-0.119825,0.344952,9.89879,0.014602,-0.00324,-0.646223,0.763002
139.91516,0.007536,-0.025378,0.001703,-0.130876,0.339112,9.907274,0.014525,-0.003332,-0.646169,0.763049
139.921535,0.022173,-0.025896,-0.007477,-0.136979,0.349754,9.914201,0.014498,-0.003458,-0.646147,0.763068
139.934341,0.022685,-0.025811,-0.004672,-0.141224,0.346759,9.921125,0.014518,-0.003624,-0.646158,0.763057
139.941534,0.01229,-0.021836,0.002409,-0.150717,0.328593,9.931813,0.014538,-0.003785,-0.646161,0.763053
139.954386,0.012125,-0.020502,0.00302,-0.157517,0.31506,9.94849,0.014532,-0.0039,-0.646149,0.763063
139.961538,0.028737,-0.02375,-0.002798,-0.160462,0.316553,9.976381,0.014528,-0.004009,-0.646126,0.763082
139.974438,0.041285,-0.029818,-0.010346,-0.153363,0.322541,10.00669,0.014572,-0.00418,-0.646125,0.763081
139.981555,0.034593,-0.034099,-0.011675,-0.151422,0.308793,10.023259,0.014645,-0.004415,-0.646156,0.763052
139.994358,0.014482,-0.033394,-0.010122,-0.156417,0.284002,10.017395,0.014686,-0.00465,-0.646186,0.763025
140.001537,0.003955,-0.029378,-0.012497,-0.156582,0.292049,10.010219,0.014662,-0.004829,-0.646211,0.763003
140.014814,0.017547,-0.02581,-0.020879,-0.156816,0.313626,10.007292,0.014619,-0.004968,-0.646254,0.762966
140.021803,0.036423,-0.022772,-0.026504,-0.148997,0.322109,9.996982,0.014638,-0.005134,-0.646316,0.762912
140.03446,0.034549,-0.017463,-0.02708,-0.138599,0.311083,9.981511,0.014731,-0.00534,-0.6464,0.762838
140.042177,0.015439,-0.008889,-0.025219,-0.136224,0.315276,9.954714,0.014834,-0.005519,-0.646486,0.762762
140.054397,0.006621,-0.000606,-0.025512,-0.140695,0.333461,9.930818,0.014895,-0.005605,-0.646574,0.762685
140.06153,0.020577,0.004638,-0.027555,-0.14392,0.345757,9.909264,0.014947,-0.005629,-0.646657,0.762614
140.074315,0.041511,0.004971,-0.028667,-0.154799,0.352679,9.882396,0.01506,-0.005671,-0.646746,0.762536
140.081529,0.037938,0.005317,-0.026814,-0.17449,0.342926,9.853918,0.015242,-0.005769,-0.646846,0.762447
140.094399,0.014605,0.013736,-0.026004,-0.186637,0.318334,9.82665,0.015411,-0.005854,-0.646931,0.76237
140.10153,0.001181,0.021541,-0.029185,-0.19518,0.289046,9.799739,0.015525,-0.005843,-0.647013,0.762299
140.11481,0.011202,0.027141,-0.032755,-0.189622,0.274933,9.771969,0.015619,-0.005767,-0.647105,0.762219
140.121536,0.022568,0.02992,-0.031205,-0.179739,0.26863,9.746313,0.01577,-0.005703,-0.64721,0.762127
140.13434,0.010584,0.03455,-0.028655,-0.168079,0.262872,9.706573,0.015971,-0.00566,-0.647308,0.762041
140.141607,-0.007615,0.039318,-0.032821,-0.159149,0.24301,9.665185,0.016146,-0.005566,-0.647398,0.76196
140.154407,-0.004437,0.040939,-0.03966,-0.163587,0.225466,9.631188,0.016272,-0.005398,-0.647513,0.761861
140.161563,0.013078,0.039205,-0.039127,-0.16555,0.200348,9.594743,0.016408,-0.005226,-0.647644,0.761749
140.17434,0.014053,0.037665,-0.025679,-0.184133,0.178816,9.569989,0.016591,-0.005102,-0.647771,0.761637
140.181527,0.000573,0.040241,-0.017751,-0.204253,0.159631,9.56646,0.016768,-0.004984,-0.647859,0.761559
140.194358,-0.002806,0.03992,-0.023819,-0.219804,0.164771,9.557384,0.016905,-0.00482,-0.647913,0.761512
140.201747,0.007733,0.034267,-0.030904,-0.20909,0.180946,9.561104,0.017032,-0.004651,-0.647986,0.761448
140.214808,0.005284,0.027076,-0.026243,-0.201384,0.209323,9.580725,0.017182,-0.004539,-0.648082,0.761363
140.221639,-0.012151,0.022475,-0.015168,-0.196928,0.220685,9.595131,0.017312,-0.004456,-0.648163,0.761292
140.23454,-0.022724,0.018108,-0.018556,-0.185543,0.219648,9.608464,0.017376,-0.00435,-0.648205,0.761255
140.241511,-0.017235,0.012451,-0.031483,-0.186655,0.224567,9.623319,0.017393,-0.004231,-0.648259,0.761209
140.254322,-0.011832,0.004646,-0.033252,-0.185093,0.249576,9.635338,0.017404,-0.004145,-0.648357,0.761127
140.261542,-0.019655,0.001857,-0.020251,-0.171736,0.266151,9.651905,0.0174,-0.004091,-0.648462,0.761037
140.274347,-0.02479,0.004704,-0.007043,-0.164781,0.275698,9.679849,0.017352,-0.004016,-0.648523,0.760986
140.281577,-0.011119,0.004229,-0.007933,-0.1708,0.267895,9.705421,0.017282,-0.003909,-0.648539,0.760975
140.294346,0.004697,-0.000192,-0.018118,-0.18467,0.25329,9.719891,0.017248,-0.003835,-0.648557,0.760961
140.30157,0.001127,-0.00381,-0.020279,-0.205559,0.245468,9.714618,0.017254,-0.003822,-0.648608,0.760917
140.314931,-0.013644,-0.005294,-0.013436,-0.208597,0.249209,9.704125,0.01724,-0.003815,-0.648668,0.760867
140.321502,-0.012451,-0.004995,-0.00889,-0.202918,0.25613,9.688288,0.01718,-0.003782,-0.648701,0.76084
140.334363,0.004017,-0.005349,-0.010874,-0.217392,0.263582,9.674008,0.017135,-0.003762,-0.64872,0.760825
140.341524,0.004129,-0.008524,-0.014287,-0.229551,0.266714,9.668348,0.01715,-0.003798,-0.648745,0.760803
140.354331,-0.016025,-0.006516,-0.015882,-0.237017,0.258162,9.652334,0.017162,-0.003847,-0.64878,0.760773
140.361713,-0.026548,-0.00131,-0.012647,-0.242087,0.249094,9.633153,0.01711,-0.003831,-0.648824,0.760737
140.374362,-0.012197,0.006434,-0.007677,-0.243983,0.25121,9.608075,0.01703,-0.003756,-0.648857,0.760711
140.381531,-0.00079,0.012224,-0.003958,-0.237732,0.259043,9.578279,0.017013,-0.003684,-0.648872,0.760698
140.394346,-0.008086,0.014911,-0.00244,-0.224602,0.270264,9.541149,0.017046,-0.003617,-0.648871,0.760699
140.401813,-0.018751,0.016197,-0.006076,-0.222095,0.275984,9.504518,0.01706,-0.003514,-0.648867,0.760702
140.414893,-0.009333,0.014833,-0.011536,-0.228664,0.278101,9.475295,0.01705,-0.003382,-0.648875,0.760697
140.42161,0.003319,0.010808,-0.012476,-0.227673,0.298091,9.460135,0.017075,-0.00329,-0.648911,0.760665
140.434459,0.000458,0.006407,-0.010257,-0.215906,0.318113,9.458574,0.017143,-0.003261,-0.648939,0.76064
140.441559,-0.005518,0.00061,-0.010643,-0.219355,0.325389,9.47319,0.017199,-0.003253,-0.64896,0.760621
140.454318,0.006548,-0.005554,-0.012203,-0.224194,0.313621,9.508502,0.017221,-0.003257,-0.648988,0.760597
140.461517,0.021113,-0.011248,-0.006003,-0.234506,0.298721,9.549525,0.017258,-0.003312,-0.649015,0.760572
140.474356,0.025722,-0.013034,0.004334,-0.237162,0.288929,9.584212,0.017318,-0.00342,-0.649021,0.760565
140.481605,0.027729,-0.01263,0.008348,-0.235353,0.283834,9.627953,0.017374,-0.003533,-0.648992,0.760588
140.494321,0.041372,-0.015226,0.002468,-0.229365,0.291869,9.673882,0.017426,-0.003638,-0.64895,0.760622
140.501531,0.063589,-0.017244,-0.006363,-0.224287,0.280647,9.707553,0.017518,-0.003791,-0.648929,0.760638
140.514808,0.069274,-0.018996,-0.005979,-0.218388,0.270323,9.728073,0.017685,-0.004022,-0.648936,0.760627
140.521528,0.055902,-0.016637,0.000262,-0.198746,0.282449,9.760601,0.017879,-0.004286,-0.648939,0.760618
140.534318,0.04307,-0.011168,0.002241,-0.175336,0.299073,9.781054,0.018045,-0.004517,-0.648923,0.760627
140.54161,0.047395,-0.007687,-0.002385,-0.173119,0.292739,9.787245,0.018192,-0.004701,-0.648899,0.760642
140.55434,0.068316,-0.009304,-0.005009,-0.187779,0.277648,9.792193,0.018373,-0.004892,-0.648889,0.760645
140.561509,0.074444,-0.008851,-0.00093,-0.18653,0.271414,9.811636,0.018622,-0.005151,-0.648896,0.760632
140.574312,0.064609,-0.006103,0.009677,-0.185364,0.260725,9.831829,0.018894,-0.005425,-0.648881,0.760636
140.581646,0.065971,-0.009489,0.011471,-0.176302,0.264832,9.856519,0.019134,-0.005657,-0.64883,0.760672
140.59434,0.084517,-0.014879,0.00875,-0.176481,0.268895,9.882872,0.019363,-0.005897,-0.648766,0.760719
140.601494,0.103271,-0.022089,0.008251,-0.17106,0.262084,9.908088,0.019631,-0.006205,-0.648718,0.76075
140.61528,0.098222,-0.02918,0.010914,-0.166929,0.258708,9.927924,0.019937,-0.006589,-0.648672,0.760778
140.62167,0.071837,-0.031598,0.013391,-0.169692,0.267901,9.929829,0.020202,-0.006982,-0.64862,0.760813
140.63443,0.044348,-0.033236,0.012218,-0.170317,0.281274,9.938441,0.020366,-0.007306,-0.648556,0.760859
140.641498,0.034426,-0.038724,0.007523,-0.168766,0.277812,9.94087,0.020431,-0.007561,-0.648497,0.760905
140.654432,0.04268,-0.044622,0.005378,-0.164586,0.262849,9.922195,0.020449,-0.007812,-0.648454,0.760939
140.661476,0.041354,-0.047873,0.010253,-0.176502,0.242525,9.905829,0.02048,-0.008114,-0.648416,0.760967
140.674361,0.021083,-0.044116,0.019515,-0.187801,0.23453,9.882142,0.020502,-0.008429,-0.648361,0.76101
140.682075,0.003761,-0.03638,0.025238,-0.168891,0.2232,9.846071,0.020465,-0.008673,-0.648274,0.761082
140.694344,0.006077,-0.029041,0.021961,-0.142071,0.222482,9.809616,0.020389,-0.008833,-0.648169,0.761173
140.701506,0.020442,-0.025556,0.016841,-0.123272,0.243596,9.788856,0.020337,-0.008964,-0.648073,0.761254
140.714727,0.0233,-0.026362,0.015572,-0.097487,0.276076,9.783035,0.020336,-0.009113,-0.647995,0.761319
140.721556,0.006459,-0.024684,0.019255,-0.073311,0.311582,9.778908,0.020332,-0.009259,-0.647922,0.761379
140.734325,-0.009107,-0.021696,0.0211,-0.06532,0.334112,9.785093,0.020268,-0.009342,-0.647828,0.76146
140.741502,-0.002346,-0.02158,0.017946,-0.076736,0.333234,9.797577,0.020155,-0.009367,-0.647736,0.761541
140.754445,0.021035,-0.025407,0.012772,-0.092666,0.311966,9.813009,0.02007,-0.009417,-0.647654,0.761612
140.761527,0.031723,-0.031631,0.009329,-0.100418,0.301253,9.824408,0.020062,-0.009557,-0.647584,0.76167
140.774317,0.019339,-0.034459,0.012661,-0.104157,0.313446,9.831664,0.020083,-0.009762,-0.64753,0.761712
140.781508,0.004283,-0.03079,0.015682,-0.103942,0.333708,9.831843,0.020061,-0.009948,-0.647467,0.761764
140.794333,0.010026,-0.025689,0.013699,-0.116643,0.345523,9.822346,0.019999,-0.010083,-0.647396,0.761824
140.801564,0.032106,-0.020233,0.009741,-0.139641,0.336855,9.807494,0.019973,-0.010212,-0.64733,0.761879
140.814823,0.038101,-0.015873,0.008826,-0.168054,0.322919,9.77779,0.020033,-0.010376,-0.647278,0.76192
140.821736,0.022699,-0.006889,0.008399,-0.199188,0.293839,9.738104,0.020118,-0.010529,-0.647231,0.761956
140.834463,0.012679,0.003208,0.006567,-0.230311,0.267167,9.697114,0.020169,-0.010594,-0.647177,0.762
140.842262,0.024356,0.011084,0.004235,-0.254969,0.247564,9.661306,0.020215,-0.010589,-0.647137,0.762032
140.854313,0.035961,0.014149,0.002026,-0.263966,0.225539,9.63539,0.020327,-0.010591,-0.647104,0.762057
140.86157,0.019473,0.016879,-0.002565,-0.260666,0.193148,9.603042,0.020496,-0.01062,-0.647069,0.762082
140.874513,-0.003592,0.020976,-0.011571,-0.252019,0.171983,9.569529,0.020633,-0.010604,-0.647061,0.762085
140.881504,-0.000957,0.024314,-0.018864,-0.246826,0.159266,9.528473,0.020717,-0.010519,-0.647086,0.762063
140.894401,0.010835,0.025775,-0.018045,-0.234982,0.150843,9.490844,0.020822,-0.010428,-0.647137,0.762018
140.901501,0.000462,0.0286,-0.015177,-0.223101,0.15998,9.462129,0.020965,-0.010359,-0.647184,0.761975
140.914704,-0.022691,0.034583,-0.017374,-0.203069,0.180483,9.443129,0.021069,-0.010236,-0.647224,0.76194
140.921555,-0.025754,0.038363,-0.021035,-0.19217,0.205027,9.427533,0.0211,-0.010011,-0.647274,0.7619
140.934415,-0.015949,0.039403,-0.018001,-0.17469,0.220825,9.411954,0.021119,-0.009752,-0.647332,0.761853
140.941489,-0.020188,0.041535,-0.011734,-0.15043,0.228816,9.41436,0.021172,-0.009513,-0.647382,0.761813
140.954319,-0.035644,0.043478,-0.015894,-0.134001,0.227326,9.433088,0.021224,-0.009259,-0.64741,0.76179
140.961534,-0.035585,0.040976,-0.02874,-0.117489,0.21953,9.454723,0.021239,-0.008964,-0.647451,0.761759
140.974343,-0.020876,0.030613,-0.034998,-0.110865,0.222497,9.480983,0.021253,-0.008689,-0.647538,0.761687
140.981483,-0.015734,0.022597,-0.027066,-0.110424,0.229756,9.505836,0.021291,-0.008494,-0.647648,0.761594
140.994407,-0.020775,0.01798,-0.019534,-0.104306,0.25162,9.535466,0.021319,-0.008344,-0.647734,0.761523
141.001528,-0.017589,0.011209,-0.024314,-0.089094,0.27139,9.564993,0.021307,-0.008193,-0.647784,0.761482
141.014715,-0.005487,0.003345,-0.035789,-0.07628,0.274465,9.608832,0.021274,-0.008065,-0.647863,0.761417
141.021594,-0.003431,-0.003471,-0.034599,-0.081549,0.266079,9.639937,0.021246,-0.007991,-0.647983,0.761317
141.03444,-0.015936,-0.001402,-0.021537,-0.095902,0.25243,9.661638,0.0212,-0.007941,-0.648093,0.761225
141.041523,-0.024573,0.006089,-0.01547,-0.096352,0.261304,9.681312,0.021118,-0.007851,-0.648164,0.761167
141.054292,-0.018536,0.007751,-0.025262,-0.093376,0.272749,9.690283,0.021039,-0.007722,-0.648213,0.761129
141.06154,-0.011206,0.000797,-0.038978,-0.098109,0.263946,9.691262,0.020999,-0.007617,-0.648294,0.761063
141.074339,-0.020982,-0.007181,-0.04303,-0.099417,0.247992,9.694352,0.020973,-0.007566,-0.648423,0.760954
141.081491,-0.042448,-0.013465,-0.038228,-0.103599,0.229236,9.706205,0.02089,-0.007521,-0.648569,0.760832
141.094398,-0.051787,-0.015962,-0.033953,-0.106823,0.214424,9.718168,0.020709,-0.007436,-0.648701,0.760725
141.101532,-0.039477,-0.018426,-0.037667,-0.103559,0.209844,9.735602,0.020482,-0.007329,-0.648817,0.760633
141.114694,-0.022587,-0.022652,-0.042519,-0.100821,0.214714,9.760165,0.02028,-0.007258,-0.648949,0.760527
141.121472,-0.026546,-0.026515,-0.039209,-0.085989,0.222488,9.777678,0.020112,-0.00724,-0.649098,0.760404
141.134323,-0.050493,-0.026175,-0.032101,-0.08088,0.227811,9.778776,0.019907,-0.007213,-0.649238,0.76029
141.141522,-0.06528,-0.023566,-0.029802,-0.081876,0.238644,9.786499,0.019612,-0.007108,-0.649353,0.760201
141.154282,-0.059851,-0.020964,-0.032499,-0.067731,0.25191,9.805253,0.019272,-0.006947,-0.649458,0.760121
141.161512,-0.049595,-0.021518,-0.035867,-0.063158,0.24995,9.829847,0.018961,-0.006796,-0.649571,0.760034
141.174343,-0.057668,-0.024195,-0.033548,-0.066187,0.245007,9.835344,0.018687,-0.006683,-0.649688,0.759942
141.181499,-0.079119,-0.025942,-0.026187,-0.069913,0.248196,9.833682,0.018387,-0.006564,-0.6498,0.759854
141.194366,-0.092872,-0.027745,-0.024957,-0.077412,0.242149,9.831914,0.018011,-0.006396,-0.649888,0.75979
141.2015,-0.088006,-0.028695,-0.033628,-0.076049,0.239013,9.842318,0.017583,-0.006196,-0.649975,0.759727
141.214808,-0.07852,-0.03025,-0.041743,-0.071038,0.244886,9.858975,0.017164,-0.00601,-0.65009,0.759639
141.221611,-0.081533,-0.027119,-0.037545,-0.071248,0.248999,9.854289,0.016767,-0.005848,-0.650234,0.759527
141.234405,-0.088,-0.017025,-0.02391,-0.073266,0.260246,9.836541,0.016362,-0.005657,-0.650366,0.759424
